Folder: Bessy-II-KMC-II-insitu-sin2psi/Example_Data (part 66)

File: 25SC_s1_0026.004.dat
#F C:\frames\spec\25SC_s1_0026.004
#C title =s:26 frm:4 25SC_s1
#C wavelength =0.15406

#S 1  fr_average C:\frames\spec\25SC_s1_0026.004 C:\win32app\speccom\mask.axs chi 0 180 0 360 0.02
#C 2 theta =0.000000 to 180 deg
#C   q   =0.000000 to 81.568 nm^-1
#C  chi  =0.000000 to 360 deg
#C collumns:
#C  1 position (2theta or chi in degrees)
#C  2 average intensity (sum of all counts in the region divided with number of pixels)
#C  3 Number of pixels in region)
#C  4 error (sum of sqrt(intensity) for all pixels divided by number)
#N 4
#L TTh  Int  N_pix  Err
32.99 	0.114754 	61 	0.114754
33.03 	0.048886 	1391 	0.048886
33.07 	0.059024 	2050 	0.058167
33.11 	0.054285 	2579 	0.052922
33.15 	0.059020 	2999 	0.058238
33.19 	0.060742 	3342 	0.059690
33.23 	0.055634 	3523 	0.054637
33.27 	0.059780 	3630 	0.058973
33.31 	0.060109 	3660 	0.059149
33.35 	0.057120 	3694 	0.055508
33.39 	0.062215 	3729 	0.060330
33.43 	0.066738 	3761 	0.065647
33.47 	0.056082 	3798 	0.055311
33.51 	0.056356 	3815 	0.055282
33.55 	0.057507 	3843 	0.056440
33.59 	0.056443 	3880 	0.055839
33.63 	0.064302 	3919 	0.063256
33.67 	0.056399 	3954 	0.055954
33.71 	0.059119 	3975 	0.058825
33.75 	0.054014 	3999 	0.053135
33.79 	0.061123 	4041 	0.060399
33.83 	0.058765 	4050 	0.057898
33.87 	0.062515 	4111 	0.060805
33.91 	0.057363 	4149 	0.056375
33.95 	0.057163 	4181 	0.055879
33.99 	0.058333 	4200 	0.057636
34.03 	0.056550 	4244 	0.055446
34.07 	0.052015 	4268 	0.051740
34.11 	0.058345 	4302 	0.056711
34.15 	0.058185 	4331 	0.057238
34.19 	0.062586 	4362 	0.061646
34.23 	0.058730 	4393 	0.058063
34.27 	0.056536 	4422 	0.055741
34.31 	0.059219 	4458 	0.058825
34.35 	0.055977 	4484 	0.054670
34.39 	0.061084 	4502 	0.060173
34.43 	0.062349 	4539 	0.061703
34.47 	0.055749 	4592 	0.054473
34.51 	0.063178 	4606 	0.062013
34.55 	0.050829 	4643 	0.049294
34.59 	0.060107 	4675 	0.058729
34.63 	0.054352 	4710 	0.053482
34.67 	0.052942 	4741 	0.052572
34.71 	0.054133 	4766 	0.053376
34.75 	0.053661 	4808 	0.053051
34.79 	0.064262 	4824 	0.062683
34.83 	0.054504 	4862 	0.053762
34.87 	0.057108 	4868 	0.056366
34.91 	0.062065 	4882 	0.060865
34.95 	0.058487 	4890 	0.057528
34.99 	0.059833 	4897 	0.058497
35.03 	0.061906 	4943 	0.060602
35.07 	0.061741 	4940 	0.060911
35.11 	0.058015 	4947 	0.057304
35.15 	0.053271 	4937 	0.052322
35.19 	0.055241 	4942 	0.054411
35.23 	0.051769 	4945 	0.051059
35.27 	0.057195 	4948 	0.056484
35.31 	0.058382 	4933 	0.058026
35.35 	0.049777 	4942 	0.048948
35.39 	0.055814 	4945 	0.055222
35.43 	0.055342 	4933 	0.054016
35.47 	0.060434 	4931 	0.059445
35.51 	0.052172 	4926 	0.051459
35.55 	0.045905 	4945 	0.045668
35.59 	0.055410 	4945 	0.054580
35.63 	0.063120 	4943 	0.061460
35.67 	0.059085 	4942 	0.058256
35.71 	0.056917 	4937 	0.055849
35.75 	0.058812 	4931 	0.058693
35.79 	0.055961 	4932 	0.055011
35.83 	0.059846 	4946 	0.058544
35.87 	0.054235 	4923 	0.053640
35.91 	0.058250 	4927 	0.056923
35.95 	0.061216 	4917 	0.059787
35.99 	0.057906 	4939 	0.057076
36.03 	0.052802 	4943 	0.051735
36.07 	0.056084 	4939 	0.055017
36.11 	0.056807 	4929 	0.056212
36.15 	0.058311 	4939 	0.057600
36.19 	0.053846 	4940 	0.053490
36.23 	0.056130 	4935 	0.054943
36.27 	0.055635 	4925 	0.055159
36.31 	0.058239 	4928 	0.056654
36.35 	0.058835 	4929 	0.057766
36.39 	0.061370 	4921 	0.060774
36.43 	0.062094 	4928 	0.061143
36.47 	0.058752 	4936 	0.057565
36.51 	0.056558 	4933 	0.055470
36.55 	0.056018 	4927 	0.054710
36.59 	0.056287 	4939 	0.055101
36.63 	0.056784 	4931 	0.056190
36.67 	0.054970 	4930 	0.054613
36.71 	0.061573 	4921 	0.060621
36.75 	0.057646 	4944 	0.056816
36.79 	0.057305 	4921 	0.056710
36.83 	0.053510 	4915 	0.052179
36.87 	0.052589 	4944 	0.051641
36.91 	0.057478 	4941 	0.056174
36.95 	0.052504 	4933 	0.051554
36.99 	0.051469 	4935 	0.050282
37.03 	0.060114 	4924 	0.059281
37.07 	0.054306 	4935 	0.053475
37.11 	0.055724 	4935 	0.054656
37.15 	0.053168 	4909 	0.052452
37.19 	0.049137 	4925 	0.048542
37.23 	0.053884 	4918 	0.052554
37.27 	0.053944 	4894 	0.052986
37.31 	0.055927 	4935 	0.054621
37.35 	0.056906 	4938 	0.056075
37.39 	0.048063 	4931 	0.047350
37.43 	0.053122 	4932 	0.052647
37.47 	0.054981 	4929 	0.053792
37.51 	0.054733 	4933 	0.054021
37.55 	0.057201 	4930 	0.055874
37.59 	0.052696 	4915 	0.051981
37.63 	0.050417 	4919 	0.049821
37.67 	0.055873 	4904 	0.055395
37.71 	0.058227 	4929 	0.057157
37.75 	0.049798 	4940 	0.049205
37.79 	0.054564 	4930 	0.053732
37.83 	0.054472 	4920 	0.053519
37.87 	0.057906 	4939 	0.057076
37.91 	0.049696 	4930 	0.049339
37.95 	0.057712 	4921 	0.056641
37.99 	0.049064 	4912 	0.048229
38.03 	0.060501 	4909 	0.059069
38.07 	0.058464 	4909 	0.057748
38.11 	0.056332 	4935 	0.055383
38.15 	0.057950 	4918 	0.057355
38.19 	0.059635 	4930 	0.058803
38.23 	0.055893 	4938 	0.054944
38.27 	0.064503 	4930 	0.063315
38.31 	0.063730 	4927 	0.062779
38.35 	0.060471 	4928 	0.059758
38.39 	0.065798 	4909 	0.064246
38.43 	0.064687 	4916 	0.063495
38.47 	0.063583 	4907 	0.062608
38.51 	0.065896 	4932 	0.064313
38.55 	0.062196 	4936 	0.061128
38.59 	0.060317 	4924 	0.059722
38.63 	0.057271 	4924 	0.056299
38.67 	0.050030 	4937 	0.049318
38.71 	0.059504 	4924 	0.057958
38.75 	0.053582 	4927 	0.052631
38.79 	0.057762 	4934 	0.056912
38.83 	0.058345 	4919 	0.057512
38.87 	0.046834 	4911 	0.046357
38.91 	0.054864 	4903 	0.053789
38.95 	0.058154 	4918 	0.056724
38.99 	0.055499 	4937 	0.054550
39.03 	0.051277 	4934 	0.050327
39.07 	0.046507 	4924 	0.045655
39.11 	0.059217 	4931 	0.057910
39.15 	0.056968 	4915 	0.056611
39.19 	0.047793 	4917 	0.046940
39.23 	0.052386 	4925 	0.051791
39.27 	0.059878 	4910 	0.059401
39.31 	0.049345 	4884 	0.048865
39.35 	0.046606 	4935 	0.046012
39.39 	0.055386 	4929 	0.054317
39.43 	0.048855 	4933 	0.048380
39.47 	0.052813 	4923 	0.052337
39.51 	0.051990 	4924 	0.051276
39.55 	0.051637 	4919 	0.050922
39.59 	0.051507 	4912 	0.050910
39.63 	0.058716 	4922 	0.057645
39.67 	0.057195 	4913 	0.055626
39.71 	0.058018 	4895 	0.056941
39.75 	0.053774 	4928 	0.053180
39.79 	0.055420 	4926 	0.054588
39.83 	0.053912 	4934 	0.052843
39.87 	0.050761 	4925 	0.049315
39.91 	0.060951 	4922 	0.060118
39.95 	0.056562 	4915 	0.055370
39.99 	0.049473 	4932 	0.048998
40.03 	0.052557 	4928 	0.052200
40.07 	0.058501 	4923 	0.056954
40.11 	0.053092 	4916 	0.052496
40.15 	0.054346 	4913 	0.052915
40.19 	0.054575 	4929 	0.053743
40.23 	0.051298 	4932 	0.050466
40.27 	0.056107 	4937 	0.055039
40.31 	0.052845 	4939 	0.052252
40.35 	0.057125 	4919 	0.056173
40.39 	0.045630 	4931 	0.044561
40.43 	0.050792 	4922 	0.049959
40.47 	0.054087 	4918 	0.053611
40.51 	0.042666 	4922 	0.042071
40.55 	0.047270 	4908 	0.046554
40.59 	0.053474 	4937 	0.052999
40.63 	0.057809 	4930 	0.056265
40.67 	0.058191 	4932 	0.057241
40.71 	0.049473 	4932 	0.048879
40.75 	0.053539 	4931 	0.052351
40.79 	0.047522 	4924 	0.046928
40.83 	0.049919 	4928 	0.049324
40.87 	0.049513 	4928 	0.049038
40.91 	0.055657 	4923 	0.055062
40.95 	0.049054 	4913 	0.048577
40.99 	0.044882 	4924 	0.044644
41.03 	0.051988 	4905 	0.051032
41.07 	0.055375 	4930 	0.054168
41.11 	0.053293 	4935 	0.052699
41.15 	0.047561 	4941 	0.045783
41.19 	0.052535 	4930 	0.051823
41.23 	0.046366 	4939 	0.045654
41.27 	0.051916 	4931 	0.050610
41.31 	0.050274 	4933 	0.049680
41.35 	0.049615 	4938 	0.048903
41.39 	0.043381 	4933 	0.042669
41.43 	0.045648 	4929 	0.045173
41.47 	0.049736 	4926 	0.049260
41.51 	0.055061 	4940 	0.053994
41.55 	0.049443 	4935 	0.048018
41.59 	0.044395 	4933 	0.044157
41.63 	0.043945 	4938 	0.043451
41.67 	0.048785 	4940 	0.048193
41.71 	0.046007 	4934 	0.045532
41.75 	0.043822 	4929 	0.043466
41.79 	0.047937 	4944 	0.047344
41.83 	0.052151 	4928 	0.051200
41.87 	0.055522 	4935 	0.054335
41.91 	0.048622 	4936 	0.047910
41.95 	0.048063 	4931 	0.047350
41.99 	0.047299 	4905 	0.046582
42.03 	0.048998 	4939 	0.048168
42.07 	0.043549 	4937 	0.042718
42.11 	0.045501 	4945 	0.045027
42.15 	0.045970 	4938 	0.045258
42.19 	0.048900 	4908 	0.048184
42.23 	0.040270 	4892 	0.039791
42.27 	0.049651 	4874 	0.048690
42.31 	0.043872 	4855 	0.043510
42.35 	0.046300 	4838 	0.045675
42.39 	0.045587 	4804 	0.045465
42.43 	0.046745 	4792 	0.046011
42.47 	0.048478 	4765 	0.048110
42.51 	0.045962 	4743 	0.045592
42.55 	0.049915 	4708 	0.049542
42.59 	0.040178 	4729 	0.040054
42.63 	0.049267 	4709 	0.048645
42.67 	0.042058 	4684 	0.041558
42.71 	0.046108 	4663 	0.045354
42.75 	0.047867 	4617 	0.046831
42.79 	0.046486 	4582 	0.045591
42.83 	0.043651 	4536 	0.043113
42.87 	0.046232 	4499 	0.045972
42.91 	0.053187 	4456 	0.052376
42.95 	0.046422 	4416 	0.046024
42.99 	0.045610 	4385 	0.044942
43.03 	0.050312 	4333 	0.049500
43.07 	0.043762 	4296 	0.043353
43.11 	0.042538 	4255 	0.041850
43.15 	0.045411 	4206 	0.044436
43.19 	0.054602 	4194 	0.053461
43.23 	0.044776 	4154 	0.044353
43.27 	0.054080 	4105 	0.052630
43.31 	0.043638 	4079 	0.043495
43.35 	0.043651 	4032 	0.043360
43.39 	0.043478 	4002 	0.042600
43.43 	0.045960 	3960 	0.044875
43.47 	0.040806 	3921 	0.040358
43.51 	0.047201 	3877 	0.046597
43.55 	0.039474 	2964 	0.038881
43.59 	0.049255 	1746 	0.048920
43.63 	0.037962 	1001 	0.037962
43.67 	0.039841 	502 	0.039841
43.71 	0.041841 	239 	0.041841
43.75 	0.062500 	16 	0.062500

File: 25SC_s1_0027.000.dat
#F C:\frames\spec\25SC_s1_0027.000
#C title =s:27 frm:0 25SC_s1
#C wavelength =0.15406

#S 1  fr_average C:\frames\spec\25SC_s1_0027.000 C:\win32app\speccom\mask.axs chi 0 180 0 360 0.02
#C 2 theta =0.000000 to 180 deg
#C   q   =0.000000 to 81.568 nm^-1
#C  chi  =0.000000 to 360 deg
#C collumns:
#C  1 position (2theta or chi in degrees)
#C  2 average intensity (sum of all counts in the region divided with number of pixels)
#C  3 Number of pixels in region)
#C  4 error (sum of sqrt(intensity) for all pixels divided by number)
#N 4
#L TTh  Int  N_pix  Err
32.99 	0.032787 	61 	0.032787
33.03 	0.058231 	1391 	0.057389
33.07 	0.058537 	2050 	0.057394
33.11 	0.062040 	2579 	0.060677
33.15 	0.064355 	2999 	0.062987
33.19 	0.059246 	3342 	0.058019
33.23 	0.057905 	3523 	0.057240
33.27 	0.064463 	3630 	0.062500
33.31 	0.055464 	3660 	0.054318
33.35 	0.055225 	3694 	0.054432
33.39 	0.056315 	3729 	0.055216
33.43 	0.065408 	3761 	0.064006
33.47 	0.061085 	3798 	0.059851
33.51 	0.061861 	3815 	0.060326
33.55 	0.068436 	3843 	0.066582
33.59 	0.062371 	3880 	0.061918
33.63 	0.058944 	3919 	0.058196
33.67 	0.061457 	3954 	0.059975
33.71 	0.062138 	3975 	0.061549
33.75 	0.062516 	3999 	0.061197
33.79 	0.059144 	4041 	0.058564
33.83 	0.057037 	4050 	0.056458
33.87 	0.059110 	4111 	0.058397
33.91 	0.059050 	4149 	0.058344
33.95 	0.061469 	4181 	0.060488
33.99 	0.060000 	4200 	0.058884
34.03 	0.053016 	4244 	0.052464
34.07 	0.068182 	4268 	0.067496
34.11 	0.058345 	4302 	0.057664
34.15 	0.062110 	4331 	0.060487
34.19 	0.055250 	4362 	0.054153
34.23 	0.061689 	4393 	0.060622
34.27 	0.054500 	4422 	0.052381
34.31 	0.048901 	4458 	0.048244
34.35 	0.060214 	4484 	0.059430
34.39 	0.057530 	4502 	0.057140
34.43 	0.050892 	4539 	0.050505
34.47 	0.062282 	4592 	0.061007
34.51 	0.059922 	4606 	0.058777
34.55 	0.057506 	4643 	0.056497
34.59 	0.053262 	4675 	0.052761
34.63 	0.056051 	4710 	0.054932
34.67 	0.050200 	4741 	0.049830
34.71 	0.052875 	4766 	0.052137
34.75 	0.058652 	4808 	0.057901
34.79 	0.057007 	4824 	0.055408
34.83 	0.054916 	4862 	0.053831
34.87 	0.061216 	4868 	0.060253
34.91 	0.054281 	4882 	0.053441
34.95 	0.059509 	4890 	0.058671
34.99 	0.059220 	4897 	0.058861
35.03 	0.053813 	4943 	0.052865
35.07 	0.056883 	4940 	0.056053
35.11 	0.056802 	4947 	0.055500
35.15 	0.058335 	4937 	0.057149
35.19 	0.055645 	4942 	0.054934
35.23 	0.060263 	4945 	0.059078
35.27 	0.056184 	4948 	0.055218
35.31 	0.058180 	4933 	0.057348
35.35 	0.053420 	4942 	0.052353
35.39 	0.049141 	4945 	0.048667
35.43 	0.060409 	4933 	0.059222
35.47 	0.059014 	4931 	0.057945
35.51 	0.055014 	4926 	0.054539
35.55 	0.061881 	4945 	0.060677
35.59 	0.057634 	4945 	0.056686
35.63 	0.061703 	4943 	0.061111
35.67 	0.050992 	4942 	0.049806
35.71 	0.052461 	4937 	0.051512
35.75 	0.060434 	4931 	0.059602
35.79 	0.057178 	4932 	0.056465
35.83 	0.051759 	4946 	0.050456
35.87 	0.053220 	4923 	0.052268
35.91 	0.060483 	4927 	0.059532
35.95 	0.055522 	4917 	0.054569
35.99 	0.054667 	4939 	0.053362
36.03 	0.058871 	4943 	0.057548
36.07 	0.058109 	4939 	0.057397
36.11 	0.057618 	4929 	0.056786
36.15 	0.053047 	4939 	0.052810
36.19 	0.046964 	4940 	0.046489
36.23 	0.060385 	4935 	0.059159
36.27 	0.057462 	4925 	0.055916
36.31 	0.057630 	4928 	0.056679
36.35 	0.057010 	4929 	0.056178
36.39 	0.055680 	4921 	0.054727
36.43 	0.061282 	4928 	0.060332
36.47 	0.059360 	4936 	0.058272
36.51 	0.060409 	4933 	0.058866
36.55 	0.052365 	4927 	0.050938
36.59 	0.053857 	4939 	0.053264
36.63 	0.056378 	4931 	0.055784
36.67 	0.053753 	4930 	0.052921
36.71 	0.056493 	4921 	0.055183
36.75 	0.060073 	4944 	0.059006
36.79 	0.056696 	4921 	0.055743
36.83 	0.051882 	4915 	0.050790
36.87 	0.063107 	4944 	0.061922
36.91 	0.058085 	4941 	0.057730
36.95 	0.058585 	4933 	0.057754
36.99 	0.058967 	4935 	0.058017
37.03 	0.057271 	4924 	0.056438
37.07 	0.056130 	4935 	0.055536
37.11 	0.054914 	4935 	0.053707
37.15 	0.051742 	4909 	0.051384
37.19 	0.050355 	4925 	0.049642
37.23 	0.060187 	4918 	0.059115
37.27 	0.059665 	4894 	0.058468
37.31 	0.054711 	4935 	0.053999
37.35 	0.052855 	4938 	0.052144
37.39 	0.056378 	4931 	0.055546
37.43 	0.050487 	4932 	0.050249
37.47 	0.054778 	4929 	0.053946
37.51 	0.058990 	4933 	0.057922
37.55 	0.057404 	4930 	0.056453
37.59 	0.055951 	4915 	0.054879
37.63 	0.056922 	4919 	0.056208
37.67 	0.052814 	4904 	0.051839
37.71 	0.057415 	4929 	0.056227
37.75 	0.053644 	4940 	0.052695
37.79 	0.056795 	4930 	0.055845
37.83 	0.054675 	4920 	0.053365
37.87 	0.052845 	4939 	0.051639
37.91 	0.051318 	4930 	0.050368
37.95 	0.057712 	4921 	0.057355
37.99 	0.050692 	4912 	0.049719
38.03 	0.061316 	4909 	0.060242
38.07 	0.055001 	4909 	0.053311
38.11 	0.059777 	4935 	0.058946
38.15 	0.060594 	4918 	0.059284
38.19 	0.054564 	4930 	0.053376
38.23 	0.058728 	4938 	0.057661
38.27 	0.059432 	4930 	0.058481
38.31 	0.060686 	4927 	0.059973
38.35 	0.064732 	4928 	0.063662
38.39 	0.070890 	4909 	0.069578
38.43 	0.077299 	4916 	0.075988
38.47 	0.070715 	4907 	0.069641
38.51 	0.079481 	4932 	0.077462
38.55 	0.088128 	4936 	0.086210
38.59 	0.077579 	4924 	0.075656
38.63 	0.074127 	4924 	0.072223
38.67 	0.074337 	4937 	0.072794
38.71 	0.072705 	4924 	0.070901
38.75 	0.071037 	4927 	0.069472
38.79 	0.065464 	4934 	0.064257
38.83 	0.069933 	4919 	0.068504
38.87 	0.061291 	4911 	0.060695
38.91 	0.056904 	4903 	0.055948
38.95 	0.051240 	4918 	0.050645
38.99 	0.050841 	4937 	0.049753
39.03 	0.054317 	4934 	0.053842
39.07 	0.049756 	4924 	0.048091
39.11 	0.048469 	4931 	0.047756
39.15 	0.049847 	4915 	0.049371
39.19 	0.054301 	4917 	0.052852
39.23 	0.046497 	4925 	0.046260
39.27 	0.042363 	4910 	0.041766
39.31 	0.047502 	4884 	0.046543
39.35 	0.047822 	4935 	0.047109
39.39 	0.045242 	4929 	0.044529
39.43 	0.050476 	4933 	0.049408
39.47 	0.047126 	4923 	0.046888
39.51 	0.045695 	4924 	0.045318
39.55 	0.039236 	4919 	0.038997
39.59 	0.044381 	4912 	0.043785
39.63 	0.045713 	4922 	0.044880
39.67 	0.042947 	4913 	0.042470
39.71 	0.044127 	4895 	0.043289
39.75 	0.045860 	4928 	0.045623
39.79 	0.042631 	4926 	0.042512
39.83 	0.046007 	4934 	0.045651
39.87 	0.043655 	4925 	0.042703
39.91 	0.047338 	4922 	0.045791
39.95 	0.048016 	4915 	0.047540
39.99 	0.043390 	4932 	0.043034
40.03 	0.040990 	4928 	0.040515
40.07 	0.043469 	4923 	0.043231
40.11 	0.041294 	4916 	0.040936
40.15 	0.040098 	4913 	0.039740
40.19 	0.040779 	4929 	0.040185
40.23 	0.043593 	4932 	0.043237
40.27 	0.042131 	4937 	0.041538
40.31 	0.041304 	4939 	0.040948
40.35 	0.043708 	4919 	0.042994
40.39 	0.040560 	4931 	0.040322
40.43 	0.034945 	4922 	0.034707
40.47 	0.042294 	4918 	0.041579
40.51 	0.042666 	4922 	0.042428
40.55 	0.035249 	4908 	0.035010
40.59 	0.042941 	4937 	0.042348
40.63 	0.045030 	4930 	0.044674
40.67 	0.043593 	4932 	0.042524
40.71 	0.038727 	4932 	0.038252
40.75 	0.038532 	4931 	0.038175
40.79 	0.045898 	4924 	0.045184
40.83 	0.044846 	4928 	0.044251
40.87 	0.038352 	4928 	0.038115
40.91 	0.045907 	4923 	0.045312
40.95 	0.041726 	4913 	0.041130
40.99 	0.045288 	4924 	0.044456
41.03 	0.043833 	4905 	0.043355
41.07 	0.040568 	4930 	0.039855
41.11 	0.037690 	4935 	0.037334
41.15 	0.041490 	4941 	0.040897
41.19 	0.041176 	4930 	0.040939
41.23 	0.040089 	4939 	0.039615
41.27 	0.046441 	4931 	0.045609
41.31 	0.041962 	4933 	0.041250
41.35 	0.036857 	4938 	0.036620
41.39 	0.042570 	4933 	0.042214
41.43 	0.039359 	4929 	0.038389
41.47 	0.041413 	4926 	0.040937
41.51 	0.039069 	4940 	0.038713
41.55 	0.040932 	4935 	0.040339
41.59 	0.043584 	4933 	0.042634
41.63 	0.038680 	4938 	0.038442
41.67 	0.041498 	4940 	0.040786
41.71 	0.042764 	4934 	0.042290
41.75 	0.038142 	4929 	0.037904
41.79 	0.040049 	4944 	0.039812
41.83 	0.041396 	4928 	0.041277
41.87 	0.038906 	4935 	0.038431
41.91 	0.040519 	4936 	0.040163
41.95 	0.037923 	4931 	0.037448
41.99 	0.044444 	4905 	0.043728
42.03 	0.041101 	4939 	0.040390
42.07 	0.037877 	4937 	0.037165
42.11 	0.038423 	4945 	0.038067
42.15 	0.037262 	4938 	0.037025
42.19 	0.040342 	4908 	0.039865
42.23 	0.037817 	4892 	0.037817
42.27 	0.040829 	4874 	0.040468
42.31 	0.034192 	4855 	0.034071
42.35 	0.039066 	4838 	0.038339
42.39 	0.038301 	4804 	0.038058
42.43 	0.040484 	4792 	0.040117
42.47 	0.035677 	4765 	0.035185
42.51 	0.038794 	4743 	0.038176
42.55 	0.043543 	4708 	0.042423
42.59 	0.034468 	4729 	0.033973
42.63 	0.036101 	4709 	0.035728
42.67 	0.042058 	4684 	0.041308
42.71 	0.034098 	4663 	0.034098
42.75 	0.038553 	4617 	0.038173
42.79 	0.035792 	4582 	0.035153
42.83 	0.033069 	4536 	0.032681
42.87 	0.039120 	4499 	0.038599
42.91 	0.037253 	4456 	0.036990
42.95 	0.035779 	4416 	0.035514
42.99 	0.040593 	4385 	0.039791
43.03 	0.038772 	4333 	0.038231
43.07 	0.034916 	4296 	0.034371
43.11 	0.037368 	4255 	0.036817
43.15 	0.041607 	4206 	0.041468
43.19 	0.039819 	4194 	0.039679
43.23 	0.038276 	4154 	0.037571
43.27 	0.034105 	4105 	0.033962
43.31 	0.041922 	4079 	0.041468
43.35 	0.040923 	4032 	0.040632
43.39 	0.042979 	4002 	0.042686
43.43 	0.035101 	3960 	0.034657
43.47 	0.040551 	3921 	0.040401
43.51 	0.038948 	3877 	0.038797
43.55 	0.044872 	2964 	0.044477
43.59 	0.032646 	1746 	0.032646
43.63 	0.024975 	1001 	0.024975
43.67 	0.035857 	502 	0.035857
43.71 	0.050209 	239 	0.050209
43.75 	0.062500 	16 	0.062500