Folder: Bessy-II-KMC-II-insitu-sin2psi/Example_Data (part 71)

File: 25SC_s1_0028.004.dat
#F C:\frames\spec\25SC_s1_0028.004
#C title =s:28 frm:4 25SC_s1
#C wavelength =0.15406

#S 1  fr_average C:\frames\spec\25SC_s1_0028.004 C:\win32app\speccom\mask.axs chi 0 180 0 360 0.02
#C 2 theta =0.000000 to 180 deg
#C   q   =0.000000 to 81.568 nm^-1
#C  chi  =0.000000 to 360 deg
#C collumns:
#C  1 position (2theta or chi in degrees)
#C  2 average intensity (sum of all counts in the region divided with number of pixels)
#C  3 Number of pixels in region)
#C  4 error (sum of sqrt(intensity) for all pixels divided by number)
#N 4
#L TTh  Int  N_pix  Err
32.99 	0.098361 	61 	0.098361
33.03 	0.046010 	1391 	0.044747
33.07 	0.060976 	2050 	0.060404
33.11 	0.060101 	2579 	0.059192
33.15 	0.066022 	2999 	0.064850
33.19 	0.061041 	3342 	0.060340
33.23 	0.057905 	3523 	0.056908
33.27 	0.059504 	3630 	0.059020
33.31 	0.052186 	3660 	0.051225
33.35 	0.061992 	3694 	0.060565
33.39 	0.057120 	3729 	0.056649
33.43 	0.059825 	3761 	0.058423
33.47 	0.056609 	3798 	0.056609
33.51 	0.056356 	3815 	0.055589
33.55 	0.058548 	3843 	0.058243
33.59 	0.054639 	3880 	0.053733
33.63 	0.058433 	3919 	0.057237
33.67 	0.060951 	3954 	0.059618
33.71 	0.058113 	3975 	0.057376
33.75 	0.065266 	3999 	0.063948
33.79 	0.059639 	4041 	0.058479
33.83 	0.059012 	4050 	0.057711
33.87 	0.055947 	4111 	0.054808
33.91 	0.057363 	4149 	0.056516
33.95 	0.062186 	4181 	0.060342
33.99 	0.059762 	4200 	0.059343
34.03 	0.057257 	4244 	0.056429
34.07 	0.056701 	4268 	0.055329
34.11 	0.060205 	4302 	0.059115
34.15 	0.056338 	4331 	0.055527
34.19 	0.056625 	4362 	0.055260
34.23 	0.063510 	4393 	0.062688
34.27 	0.058571 	4422 	0.057776
34.31 	0.059892 	4458 	0.059104
34.35 	0.061329 	4484 	0.060153
34.39 	0.056419 	4502 	0.055509
34.43 	0.059705 	4539 	0.058414
34.47 	0.059016 	4592 	0.057868
34.51 	0.059271 	4606 	0.058126
34.55 	0.057721 	4643 	0.056964
34.59 	0.059893 	4675 	0.059016
34.63 	0.057325 	4710 	0.055957
34.67 	0.054841 	4741 	0.053852
34.71 	0.062526 	4766 	0.060805
34.75 	0.057404 	4808 	0.056917
34.79 	0.055348 	4824 	0.054377
34.83 	0.052653 	4862 	0.051930
34.87 	0.056286 	4868 	0.055203
34.91 	0.056739 	4882 	0.055659
34.95 	0.061350 	4890 	0.060631
34.99 	0.059016 	4897 	0.058159
35.03 	0.061906 	4943 	0.060247
35.07 	0.048988 	4940 	0.048514
35.11 	0.062058 	4947 	0.061111
35.15 	0.061576 	4937 	0.060983
35.19 	0.059490 	4942 	0.058423
35.23 	0.060870 	4945 	0.060040
35.27 	0.060428 	4948 	0.059363
35.31 	0.060612 	4933 	0.059543
35.35 	0.050384 	4942 	0.049436
35.39 	0.059252 	4945 	0.057949
35.43 	0.058180 	4933 	0.057467
35.47 	0.058000 	4931 	0.056912
35.51 	0.061916 	4926 	0.061322
35.55 	0.059656 	4945 	0.058353
35.59 	0.053994 	4945 	0.053264
35.63 	0.062917 	4943 	0.061377
35.67 	0.058074 	4942 	0.057007
35.71 	0.053676 	4937 	0.052964
35.75 	0.056581 	4931 	0.055630
35.79 	0.062652 	4932 	0.061583
35.83 	0.053781 	4946 	0.052715
35.87 	0.060329 	4923 	0.059258
35.91 	0.055815 	4927 	0.055102
35.95 	0.049217 	4917 	0.048740
35.99 	0.065195 	4939 	0.064247
36.03 	0.060085 	4943 	0.058900
36.07 	0.057502 	4939 	0.056197
36.11 	0.050720 	4929 	0.050007
36.15 	0.055274 	4939 	0.053851
36.19 	0.052024 	4940 	0.051431
36.23 	0.059980 	4935 	0.058773
36.27 	0.060711 	4925 	0.059759
36.31 	0.065950 	4928 	0.064761
36.35 	0.055995 	4929 	0.055163
36.39 	0.060760 	4921 	0.059312
36.43 	0.057630 	4928 	0.056441
36.47 	0.049433 	4936 	0.048839
36.51 	0.057166 	4933 	0.056454
36.55 	0.052567 	4927 	0.051616
36.59 	0.059931 	4939 	0.059457
36.63 	0.050700 	4931 	0.049630
36.67 	0.052738 	4930 	0.052144
36.71 	0.059134 	4921 	0.058301
36.75 	0.059061 	4944 	0.057739
36.79 	0.051616 	4921 	0.050782
36.83 	0.052696 	4915 	0.051742
36.87 	0.058859 	4944 	0.057793
36.91 	0.058288 	4941 	0.056747
36.95 	0.052301 	4933 	0.051470
36.99 	0.050456 	4935 	0.049744
37.03 	0.057271 	4924 	0.056081
37.07 	0.056535 	4935 	0.055348
37.11 	0.057751 	4935 	0.056920
37.15 	0.054390 	4909 	0.053197
37.19 	0.054213 	4925 	0.053500
37.23 	0.051240 	4918 	0.050645
37.27 	0.052309 	4894 	0.051212
37.31 	0.056535 	4935 	0.055585
37.35 	0.054070 	4938 	0.053596
37.39 	0.055364 	4931 	0.054532
37.43 	0.052311 	4932 	0.051124
37.47 	0.051532 	4929 	0.050819
37.51 	0.056558 	4933 	0.055489
37.55 	0.056592 	4930 	0.055523
37.59 	0.060224 	4915 	0.059390
37.63 	0.051840 	4919 	0.051125
37.67 	0.056281 	4904 	0.055803
37.71 	0.052343 	4929 	0.051749
37.75 	0.054251 	4940 	0.053658
37.79 	0.060041 	4930 	0.059070
37.83 	0.055285 	4920 	0.054670
37.87 	0.053857 	4939 	0.053383
37.91 	0.054970 	4930 	0.054257
37.95 	0.055477 	4921 	0.054881
37.99 	0.059243 	4912 	0.058289
38.03 	0.052760 	4909 	0.052283
38.07 	0.058668 	4909 	0.057693
38.11 	0.056332 	4935 	0.055739
38.15 	0.059374 	4918 	0.058659
38.19 	0.057404 	4930 	0.056928
38.23 	0.060753 	4938 	0.059686
38.27 	0.059432 	4930 	0.058481
38.31 	0.065557 	4927 	0.064111
38.35 	0.065747 	4928 	0.064677
38.39 	0.066001 	4909 	0.064927
38.43 	0.060822 	4916 	0.060107
38.47 	0.056042 	4907 	0.055445
38.51 	0.067315 	4932 	0.066247
38.55 	0.061386 	4936 	0.060555
38.59 	0.061942 	4924 	0.061466
38.63 	0.060926 	4924 	0.059855
38.67 	0.061171 	4937 	0.059984
38.71 	0.058489 	4924 	0.057537
38.75 	0.054597 	4927 	0.054003
38.79 	0.060195 	4934 	0.059720
38.83 	0.057939 	4919 	0.057105
38.87 	0.051517 	4911 	0.050801
38.91 	0.051397 	4903 	0.050680
38.95 	0.049410 	4918 	0.048577
38.99 	0.057120 	4937 	0.055914
39.03 	0.052290 	4934 	0.051222
39.07 	0.054427 	4924 	0.053238
39.11 	0.051105 	4931 	0.050392
39.15 	0.048830 	4915 	0.048353
39.19 	0.054098 	4917 	0.053383
39.23 	0.052995 	4925 	0.051924
39.27 	0.048065 	4910 	0.047111
39.31 	0.054873 	4884 	0.054153
39.35 	0.052482 	4935 	0.052007
39.39 	0.054778 	4929 	0.053708
39.43 	0.053112 	4933 	0.051805
39.47 	0.056267 	4923 	0.055434
39.51 	0.056052 	4924 	0.055338
39.55 	0.051840 	4919 	0.051483
39.59 	0.052524 	4912 	0.051451
39.63 	0.060951 	4922 	0.060594
39.67 	0.047222 	4913 	0.046864
39.71 	0.053524 	4895 	0.052567
39.75 	0.050933 	4928 	0.050220
39.79 	0.054608 	4926 	0.053895
39.83 	0.056749 	4934 	0.056037
39.87 	0.059086 	4925 	0.058254
39.91 	0.054449 	4922 	0.053378
39.95 	0.056358 	4915 	0.055524
39.99 	0.053933 	4932 	0.052983
40.03 	0.054586 	4928 	0.053754
40.07 	0.051798 	4923 	0.050489
40.11 	0.053092 	4916 	0.052496
40.15 	0.055567 	4913 	0.054494
40.19 	0.049503 	4929 	0.049028
40.23 	0.052920 	4932 	0.052445
40.27 	0.048815 	4937 	0.047629
40.31 	0.055882 	4939 	0.054577
40.35 	0.051840 	4919 	0.051363
40.39 	0.047860 	4931 	0.047148
40.43 	0.050792 	4922 	0.049840
40.47 	0.050224 	4918 	0.049747
40.51 	0.054653 	4922 	0.053819
40.55 	0.048085 	4908 	0.047369
40.59 	0.053676 	4937 	0.053202
40.63 	0.047870 	4930 	0.047038
40.67 	0.050892 	4932 	0.050298
40.71 	0.052109 	4932 	0.051396
40.75 	0.049888 	4931 	0.049057
40.79 	0.050569 	4924 	0.049855
40.83 	0.051745 	4928 	0.051151
40.87 	0.051948 	4928 	0.051591
40.91 	0.052001 	4923 	0.051525
40.95 	0.052921 	4913 	0.052067
40.99 	0.048538 	4924 	0.047705
41.03 	0.048930 	4905 	0.047596
41.07 	0.053144 	4930 	0.050966
41.11 	0.054103 	4935 	0.053134
41.15 	0.053026 	4941 	0.052077
41.19 	0.054158 	4930 	0.052732
41.23 	0.049605 	4939 	0.049012
41.27 	0.052930 	4931 	0.052218
41.31 	0.046422 	4933 	0.045947
41.35 	0.045565 	4938 	0.045565
41.39 	0.048247 	4933 	0.047653
41.43 	0.044228 	4929 	0.043158
41.47 	0.047300 	4926 	0.046686
41.51 	0.051417 	4940 	0.050587
41.55 	0.047011 	4935 	0.046418
41.59 	0.050476 	4933 	0.049507
41.63 	0.047590 	4938 	0.046878
41.67 	0.047368 	4940 	0.046064
41.71 	0.051885 	4934 	0.050935
41.75 	0.048489 	4929 	0.048013
41.79 	0.050162 	4944 	0.049332
41.83 	0.045252 	4928 	0.044657
41.87 	0.047822 	4935 	0.047109
41.91 	0.044368 	4936 	0.043419
41.95 	0.050294 	4931 	0.049819
41.99 	0.043833 	4905 	0.043475
42.03 	0.046973 	4939 	0.046143
42.07 	0.039903 	4937 	0.039665
42.11 	0.048938 	4945 	0.047991
42.15 	0.052450 	4938 	0.051956
42.19 	0.049511 	4908 	0.048676
42.23 	0.044767 	4892 	0.044527
42.27 	0.048831 	4874 	0.047388
42.31 	0.048816 	4855 	0.047951
42.35 	0.044853 	4838 	0.043885
42.39 	0.045795 	4804 	0.044942
42.43 	0.044658 	4792 	0.044413
42.47 	0.050157 	4765 	0.049174
42.51 	0.049968 	4743 	0.049227
42.55 	0.041844 	4708 	0.040973
42.59 	0.042715 	4729 	0.042344
42.63 	0.044808 	4709 	0.044061
42.67 	0.046541 	4684 	0.046291
42.71 	0.045035 	4663 	0.044282
42.75 	0.039636 	4617 	0.039509
42.79 	0.045395 	4582 	0.044628
42.83 	0.043871 	4536 	0.042838
42.87 	0.047566 	4499 	0.046915
42.91 	0.049372 	4456 	0.048693
42.95 	0.043931 	4416 	0.043268
42.99 	0.050855 	4385 	0.050187
43.03 	0.048004 	4333 	0.046765
43.07 	0.042598 	4296 	0.042052
43.11 	0.045358 	4255 	0.044808
43.15 	0.048027 	4206 	0.047191
43.19 	0.042680 	4194 	0.041819
43.23 	0.042610 	4154 	0.042186
43.27 	0.040682 	4105 	0.040397
43.31 	0.046335 	4079 	0.045760
43.35 	0.045387 	4032 	0.044782
43.39 	0.046977 	4002 	0.046391
43.43 	0.043939 	3960 	0.043496
43.47 	0.044887 	3921 	0.044438
43.51 	0.042301 	3877 	0.041545
43.55 	0.046559 	2964 	0.045768
43.59 	0.044674 	1746 	0.043667
43.63 	0.053946 	1001 	0.053361
43.67 	0.049801 	502 	0.049801
43.71 	0.037657 	239 	0.037657
43.75 	0.125000 	16 	0.125000

File: 25SC_s1_0029.000.dat
#F C:\frames\spec\25SC_s1_0029.000
#C title =s:29 frm:0 25SC_s1
#C wavelength =0.15406

#S 1  fr_average C:\frames\spec\25SC_s1_0029.000 C:\win32app\speccom\mask.axs chi 0 180 0 360 0.02
#C 2 theta =0.000000 to 180 deg
#C   q   =0.000000 to 81.568 nm^-1
#C  chi  =0.000000 to 360 deg
#C collumns:
#C  1 position (2theta or chi in degrees)
#C  2 average intensity (sum of all counts in the region divided with number of pixels)
#C  3 Number of pixels in region)
#C  4 error (sum of sqrt(intensity) for all pixels divided by number)
#N 4
#L TTh  Int  N_pix  Err
32.99 	0.016393 	61 	0.016393
33.03 	0.062545 	1391 	0.061703
33.07 	0.073659 	2050 	0.072516
33.11 	0.063591 	2579 	0.063136
33.15 	0.067022 	2999 	0.066046
33.19 	0.058049 	3342 	0.056997
33.23 	0.062731 	3523 	0.062066
33.27 	0.056198 	3630 	0.055553
33.31 	0.069399 	3660 	0.067158
33.35 	0.065782 	3694 	0.064514
33.39 	0.061947 	3729 	0.061319
33.43 	0.057432 	3761 	0.056341
33.47 	0.057399 	3798 	0.056473
33.51 	0.055308 	3815 	0.054694
33.55 	0.069997 	3843 	0.069235
33.59 	0.062371 	3880 	0.061465
33.63 	0.056647 	3919 	0.056049
33.67 	0.061710 	3954 	0.059932
33.71 	0.062893 	3975 	0.061395
33.75 	0.061015 	3999 	0.060283
33.79 	0.056174 	4041 	0.054725
33.83 	0.062716 	4050 	0.061993
33.87 	0.064218 	4111 	0.062912
33.91 	0.057363 	4149 	0.056940
33.95 	0.058120 	4181 	0.057560
33.99 	0.063571 	4200 	0.062177
34.03 	0.058671 	4244 	0.057843
34.07 	0.056935 	4268 	0.056249
34.11 	0.053928 	4302 	0.052975
34.15 	0.053798 	4331 	0.052987
34.19 	0.054333 	4362 	0.053371
34.23 	0.058502 	4393 	0.056747
34.27 	0.059475 	4422 	0.058813
34.31 	0.056752 	4458 	0.056226
34.35 	0.055977 	4484 	0.055585
34.39 	0.052199 	4502 	0.050898
34.43 	0.055739 	4539 	0.054815
34.47 	0.058580 	4592 	0.057304
34.51 	0.055797 	4606 	0.054398
34.55 	0.052983 	4643 	0.052478
34.59 	0.057326 	4675 	0.056198
34.63 	0.061359 	4710 	0.060613
34.67 	0.055263 	4741 	0.054768
34.71 	0.054763 	4766 	0.053391
34.75 	0.049709 	4808 	0.048612
34.79 	0.053897 	4824 	0.052561
34.83 	0.052653 	4862 	0.051810
34.87 	0.065530 	4868 	0.064808
34.91 	0.054281 	4882 	0.053681
34.95 	0.056442 	4890 	0.055483
34.99 	0.050439 	4897 	0.049602
35.03 	0.053611 	4943 	0.052900
35.07 	0.054049 	4940 	0.053456
35.11 	0.054983 	4947 	0.053917
35.15 	0.055904 	4937 	0.055074
35.19 	0.057871 	4942 	0.056330
35.23 	0.048938 	4945 	0.048228
35.27 	0.051536 	4948 	0.050589
35.31 	0.057571 	4933 	0.056978
35.35 	0.053824 	4942 	0.052876
35.39 	0.058241 	4945 	0.057411
35.43 	0.055544 	4933 	0.055069
35.47 	0.060637 	4931 	0.059073
35.51 	0.055420 	4926 	0.054350
35.55 	0.059656 	4945 	0.058334
35.59 	0.051365 	4945 	0.050299
35.63 	0.056848 	4943 	0.055663
35.67 	0.055443 	4942 	0.054613
35.71 	0.056715 	4937 	0.055884
35.75 	0.056784 	4931 	0.056071
35.79 	0.059408 	4932 	0.058339
35.83 	0.062273 	4946 	0.060832
35.87 	0.059720 	4923 	0.058768
35.91 	0.063730 	4927 	0.062779
35.95 	0.057962 	4917 	0.057247
35.99 	0.059121 	4939 	0.058528
36.03 	0.057253 	4943 	0.055949
36.07 	0.064386 	4939 	0.063318
36.11 	0.059241 	4929 	0.058053
36.15 	0.057704 	4939 	0.056637
36.19 	0.056073 	4940 	0.054650
36.23 	0.052482 	4935 	0.051414
36.27 	0.052386 	4925 	0.051672
36.31 	0.054789 	4928 	0.054076
36.35 	0.060256 	4929 	0.058235
36.39 	0.053851 	4921 	0.053137
36.43 	0.054789 	4928 	0.054076
36.47 	0.059562 	4936 	0.058712
36.51 	0.059801 	4933 	0.058495
36.55 	0.062107 	4927 	0.060442
36.59 	0.051832 	4939 	0.051239
36.63 	0.057392 	4931 	0.055729
36.67 	0.057809 	4930 	0.057096
36.71 	0.053444 	4921 	0.053087
36.75 	0.054409 	4944 	0.053462
36.79 	0.060354 	4921 	0.059144
36.83 	0.052899 	4915 	0.052045
36.87 	0.056230 	4944 	0.055756
36.91 	0.058288 	4941 	0.057221
36.95 	0.059193 	4933 	0.057867
36.99 	0.059169 	4935 	0.057745
37.03 	0.061332 	4924 	0.060024
37.07 	0.054103 	4935 	0.053154
37.11 	0.055319 	4935 	0.055082
37.15 	0.052760 	4909 	0.052044
37.19 	0.059086 	4925 	0.057778
37.23 	0.052867 	4918 	0.052014
37.27 	0.064160 	4894 	0.062963
37.31 	0.059980 	4935 	0.058793
37.35 	0.061563 	4938 	0.060377
37.39 	0.060637 	4931 	0.059805
37.43 	0.054745 	4932 	0.054032
37.47 	0.051329 	4929 	0.049784
37.51 	0.056558 	4933 	0.055608
37.55 	0.055984 	4930 	0.055390
37.59 	0.053103 	4915 	0.051534
37.63 	0.058142 	4919 	0.057427
37.67 	0.057096 	4904 	0.055763
37.71 	0.062284 	4929 	0.060858
37.75 	0.064170 	4940 	0.062866
37.79 	0.055781 	4930 	0.054236
37.83 	0.055691 	4920 	0.054619
37.87 	0.052237 	4939 	0.051407
37.91 	0.056592 	4930 	0.055166
37.95 	0.057509 	4921 	0.056318
37.99 	0.053950 	4912 	0.053234
38.03 	0.057242 	4909 	0.056526
38.07 	0.057649 	4909 	0.056933
38.11 	0.057751 	4935 	0.056920
38.15 	0.061204 	4918 	0.059973
38.19 	0.061663 	4930 	0.060119
38.23 	0.063386 	4938 	0.061587
38.27 	0.064909 	4930 	0.064315
38.31 	0.069008 	4927 	0.067937
38.35 	0.064529 	4928 	0.063341
38.39 	0.068853 	4909 	0.068018
38.43 	0.081774 	4916 	0.080106
38.47 	0.079275 	4907 	0.077603
38.51 	0.082522 	4932 	0.080820
38.55 	0.081037 	4936 	0.079594
38.59 	0.073314 	4924 	0.072125
38.63 	0.077985 	4924 	0.076439
38.67 	0.078590 	4937 	0.076454
38.71 	0.072299 	4924 	0.070395
38.75 	0.071037 	4927 	0.069115
38.79 	0.063843 	4934 	0.062774
38.83 	0.065867 	4919 	0.063723
38.87 	0.058033 	4911 	0.057178
38.91 	0.047318 	4903 	0.046243
38.95 	0.053274 	4918 	0.052202
38.99 	0.052461 	4937 	0.052224
39.03 	0.053304 	4934 	0.052829
39.07 	0.050772 	4924 	0.050058
39.11 	0.049077 	4931 	0.047969
39.15 	0.049034 	4915 	0.048557
39.19 	0.054505 	4917 	0.053194
39.23 	0.045279 	4925 	0.045041
39.27 	0.048065 	4910 	0.047707
39.31 	0.047297 	4884 	0.046578
39.35 	0.045795 	4935 	0.044727
39.39 	0.048489 	4929 	0.047775
39.43 	0.047436 	4933 	0.047198
39.47 	0.049970 	4923 	0.049256
39.51 	0.047725 	4924 	0.046774
39.55 	0.046961 	4919 	0.046008
39.59 	0.038681 	4912 	0.038562
39.63 	0.050589 	4922 	0.049260
39.67 	0.044169 	4913 	0.043930
39.71 	0.047600 	4895 	0.046882
39.75 	0.041193 	4928 	0.040955
39.79 	0.047097 	4926 	0.046740
39.83 	0.047021 	4934 	0.046190
39.87 	0.043046 	4925 	0.042332
39.91 	0.046119 	4922 	0.045167
39.95 	0.043133 	4915 	0.043133
39.99 	0.049676 	4932 	0.049082
40.03 	0.045455 	4928 	0.045217
40.07 	0.042251 	4923 	0.041775
40.11 	0.040887 	4916 	0.039934
40.15 	0.044779 	4913 	0.044302
40.19 	0.046054 	4929 	0.045341
40.23 	0.038727 	4932 	0.038370
40.27 	0.039700 	4937 	0.039107
40.31 	0.038267 	4939 	0.037674
40.35 	0.042895 	4919 	0.042280
40.39 	0.045224 	4931 	0.044749
40.43 	0.040634 	4922 	0.040277
40.47 	0.041277 	4918 	0.041158
40.51 	0.042869 	4922 	0.042393
40.55 	0.044825 	4908 	0.043870
40.59 	0.041726 	4937 	0.041251
40.63 	0.045639 	4930 	0.045045
40.67 	0.043796 	4932 	0.043083
40.71 	0.050487 	4932 	0.050130
40.75 	0.049077 	4931 	0.048246
40.79 	0.045085 	4924 	0.044847
40.83 	0.040381 	4928 	0.040025
40.87 	0.044643 	4928 	0.043930
40.91 	0.042860 	4923 	0.042265
40.95 	0.038469 	4913 	0.037873
40.99 	0.038180 	4924 	0.037823
41.03 	0.043017 	4905 	0.042540
41.07 	0.039351 	4930 	0.038519
41.11 	0.039919 	4935 	0.038969
41.15 	0.043918 	4941 	0.043207
41.19 	0.042394 	4930 	0.042275
41.23 	0.041709 	4939 	0.041116
41.27 	0.042385 	4931 	0.042029
41.31 	0.042368 	4933 	0.041299
41.35 	0.040907 	4938 	0.040057
41.39 	0.038719 	4933 	0.038600
41.43 	0.038344 	4929 	0.037869
41.47 	0.038165 	4926 	0.037570
41.51 	0.042915 	4940 	0.042204
41.55 	0.040527 	4935 	0.039558
41.59 	0.042368 	4933 	0.041893
41.63 	0.041312 	4938 	0.040838
41.67 	0.041093 	4940 	0.040619
41.71 	0.040535 	4934 	0.040298
41.75 	0.034490 	4929 	0.034252
41.79 	0.034183 	4944 	0.033472
41.83 	0.036323 	4928 	0.035848
41.87 	0.038906 	4935 	0.038668
41.91 	0.040113 	4936 	0.039995
41.95 	0.039951 	4931 	0.039714
41.99 	0.044852 	4905 	0.044494
42.03 	0.035837 	4939 	0.035126
42.07 	0.036864 	4937 	0.036509
42.11 	0.036603 	4945 	0.036366
42.15 	0.039692 	4938 	0.038980
42.19 	0.044621 	4908 	0.043905
42.23 	0.037612 	4892 	0.037373
42.27 	0.038777 	4874 	0.038296
42.31 	0.038723 	4855 	0.038120
42.35 	0.041339 	4838 	0.040976
42.39 	0.036844 	4804 	0.036357
42.43 	0.040275 	4792 	0.039909
42.47 	0.040923 	4765 	0.040800
42.51 	0.033312 	4743 	0.033312
42.55 	0.043543 	4708 	0.043418
42.59 	0.041446 	4729 	0.040703
42.63 	0.036101 	4709 	0.035852
42.67 	0.040991 	4684 	0.040365
42.71 	0.040532 	4663 	0.040406
42.75 	0.042668 	4617 	0.042161
42.79 	0.038411 	4582 	0.038155
42.83 	0.038360 	4536 	0.037843
42.87 	0.039342 	4499 	0.038951
42.91 	0.037702 	4456 	0.037308
42.95 	0.031476 	4416 	0.031078
42.99 	0.038084 	4385 	0.037684
43.03 	0.037157 	4333 	0.036346
43.07 	0.038873 	4296 	0.038464
43.11 	0.039248 	4255 	0.038835
43.15 	0.039705 	4206 	0.039287
43.19 	0.036242 	4194 	0.035963
43.23 	0.040924 	4154 	0.039773
43.27 	0.038490 	4105 	0.038204
43.31 	0.034567 	4079 	0.034567
43.35 	0.039435 	4032 	0.038853
43.39 	0.034233 	4002 	0.033770
43.43 	0.035859 	3960 	0.035563
43.47 	0.037235 	3921 	0.036190
43.51 	0.038174 	3877 	0.037872
43.55 	0.034413 	2964 	0.034215
43.59 	0.042955 	1746 	0.042955
43.63 	0.031968 	1001 	0.031968
43.67 	0.039841 	502 	0.038674
43.71 	0.041841 	239 	0.039390
43.75 	0.000000 	16 	0.000000