Folder: Bessy-II-KMC-II-insitu-sin2psi/Example_Data (part 77)

File: 25SC_s1_0031.001.dat
#F C:\frames\spec\25SC_s1_0031.001
#C title =s:31 frm:1 25SC_s1
#C wavelength =0.15406

#S 1  fr_average C:\frames\spec\25SC_s1_0031.001 C:\win32app\speccom\mask.axs chi 0 180 0 360 0.02
#C 2 theta =0.000000 to 180 deg
#C   q   =0.000000 to 81.568 nm^-1
#C  chi  =0.000000 to 360 deg
#C collumns:
#C  1 position (2theta or chi in degrees)
#C  2 average intensity (sum of all counts in the region divided with number of pixels)
#C  3 Number of pixels in region)
#C  4 error (sum of sqrt(intensity) for all pixels divided by number)
#N 4
#L TTh  Int  N_pix  Err
32.99 	0.032787 	61 	0.032787
33.03 	0.062545 	1391 	0.061703
33.07 	0.061951 	2050 	0.061380
33.11 	0.058938 	2579 	0.058256
33.15 	0.057019 	2999 	0.056824
33.19 	0.066727 	3342 	0.065500
33.23 	0.064434 	3523 	0.062605
33.27 	0.056749 	3630 	0.055942
33.31 	0.056011 	3660 	0.055371
33.35 	0.060097 	3694 	0.058961
33.39 	0.056852 	3729 	0.056538
33.43 	0.063015 	3761 	0.061925
33.47 	0.058452 	3798 	0.057064
33.51 	0.065269 	3815 	0.064347
33.55 	0.061150 	3843 	0.060388
33.59 	0.061082 	3880 	0.059573
33.63 	0.063537 	3919 	0.062939
33.67 	0.052352 	3954 	0.051463
33.71 	0.057862 	3975 	0.056683
33.75 	0.067017 	3999 	0.065112
33.79 	0.059639 	4041 	0.058044
33.83 	0.056790 	4050 	0.056356
33.87 	0.057164 	4111 	0.056024
33.91 	0.061220 	4149 	0.060372
33.95 	0.058120 	4181 	0.057700
33.99 	0.050714 	4200 	0.050435
34.03 	0.056786 	4244 	0.056234
34.07 	0.063496 	4268 	0.061712
34.11 	0.057415 	4302 	0.056598
34.15 	0.063496 	4331 	0.062143
34.19 	0.060981 	4362 	0.059638
34.23 	0.054860 	4393 	0.053927
34.27 	0.059023 	4422 	0.058096
34.31 	0.059219 	4458 	0.058694
34.35 	0.060214 	4484 	0.059539
34.39 	0.061972 	4502 	0.061192
34.43 	0.061908 	4539 	0.060875
34.47 	0.059887 	4592 	0.058866
34.51 	0.047112 	4606 	0.046477
34.55 	0.055352 	4643 	0.054343
34.59 	0.058610 	4675 	0.058234
34.63 	0.057537 	4710 	0.056791
34.67 	0.058848 	4741 	0.058354
34.71 	0.057700 	4766 	0.055980
34.75 	0.056780 	4808 	0.055440
34.79 	0.054312 	4824 	0.053340
34.83 	0.056150 	4862 	0.055065
34.87 	0.049918 	4868 	0.049316
34.91 	0.059402 	4882 	0.058182
34.95 	0.057464 	4890 	0.056745
34.99 	0.056565 	4897 	0.056206
35.03 	0.056646 	4943 	0.055342
35.07 	0.057692 	4940 	0.056507
35.11 	0.052759 	4947 	0.051694
35.15 	0.062386 	4937 	0.061674
35.19 	0.054431 	4942 	0.053365
35.23 	0.057027 	4945 	0.056435
35.27 	0.059822 	4948 	0.058875
35.31 	0.048247 	4933 	0.046921
35.35 	0.059490 	4942 	0.058305
35.39 	0.058241 	4945 	0.057175
35.43 	0.059193 	4933 	0.058481
35.47 	0.059826 	4931 	0.059232
35.51 	0.057450 	4926 	0.056856
35.55 	0.048332 	4945 	0.047216
35.59 	0.049747 	4945 	0.048662
35.63 	0.056848 	4943 	0.056019
35.67 	0.055038 	4942 	0.053853
35.71 	0.054284 	4937 	0.053335
35.75 	0.057189 	4931 	0.056476
35.79 	0.060219 	4932 	0.059388
35.83 	0.052972 	4946 	0.052617
35.87 	0.056673 	4923 	0.055602
35.91 	0.057439 	4927 	0.055893
35.95 	0.054708 	4917 	0.053874
35.99 	0.057097 	4939 	0.056029
36.03 	0.055230 	4943 	0.054045
36.07 	0.052237 	4939 	0.051763
36.11 	0.055792 	4929 	0.055198
36.15 	0.054869 	4939 	0.053565
36.19 	0.056478 	4940 	0.055292
36.23 	0.061398 	4935 	0.060211
36.27 	0.062335 	4925 	0.061621
36.31 	0.051136 	4928 	0.050542
36.35 	0.054372 	4929 	0.053659
36.39 	0.059338 	4921 	0.058266
36.43 	0.055195 	4928 	0.054363
36.47 	0.061994 	4936 	0.061163
36.51 	0.054531 	4933 	0.053343
36.55 	0.056424 	4927 	0.055116
36.59 	0.060336 	4939 	0.059506
36.63 	0.061448 	4931 	0.060854
36.67 	0.053955 	4930 	0.053242
36.71 	0.057305 	4921 	0.056353
36.75 	0.057848 	4944 	0.057019
36.79 	0.052632 	4921 	0.051560
36.83 	0.059817 	4915 	0.058248
36.87 	0.057848 	4944 	0.056900
36.91 	0.063752 	4941 	0.063021
36.95 	0.060815 	4933 	0.059627
36.99 	0.050861 	4935 	0.049793
37.03 	0.053615 	4924 	0.052901
37.07 	0.055927 	4935 	0.054977
37.11 	0.055522 	4935 	0.054928
37.15 	0.057446 	4909 	0.056849
37.19 	0.048731 	4925 	0.048017
37.23 	0.058967 	4918 	0.058372
37.27 	0.059461 	4894 	0.059101
37.31 	0.049848 	4935 	0.048998
37.35 	0.052450 	4938 	0.051620
37.39 	0.049686 	4931 	0.049448
37.43 	0.058191 	4932 	0.057479
37.47 	0.056807 	4929 	0.055618
37.51 	0.044800 	4933 	0.044325
37.55 	0.053753 	4930 	0.053158
37.59 	0.056155 	4915 	0.055678
37.63 	0.058955 	4919 	0.058121
37.67 	0.053834 	4904 	0.053117
37.71 	0.047068 	4929 	0.046831
37.75 	0.052227 	4940 	0.051752
37.79 	0.054564 	4930 	0.053732
37.83 	0.051220 	4920 	0.050386
37.87 	0.055477 	4939 	0.054647
37.91 	0.060446 	4930 	0.059020
37.95 	0.054054 	4921 	0.053320
37.99 	0.051099 	4912 	0.050145
38.03 	0.048279 	4909 	0.047801
38.07 	0.053982 	4909 	0.053386
38.11 	0.049645 	4935 	0.048558
38.15 	0.058560 	4918 	0.057846
38.19 	0.060852 	4930 	0.060139
38.23 	0.057918 	4938 	0.057206
38.27 	0.065720 	4930 	0.064532
38.31 	0.057033 	4927 	0.056438
38.35 	0.062703 	4928 	0.061395
38.39 	0.056834 	4909 	0.055760
38.43 	0.074044 	4916 	0.072137
38.47 	0.073365 	4907 	0.071096
38.51 	0.075629 	4932 	0.073847
38.55 	0.074959 	4936 	0.073654
38.59 	0.063972 	4924 	0.063259
38.63 	0.071487 	4924 	0.069702
38.67 	0.064412 	4937 	0.064056
38.71 	0.061942 	4924 	0.060990
38.75 	0.063730 	4927 	0.062423
38.79 	0.059384 	4934 	0.057959
38.83 	0.062818 	4919 	0.061984
38.87 	0.057626 	4911 	0.056791
38.91 	0.054864 	4903 	0.053789
38.95 	0.054087 	4918 	0.053372
38.99 	0.053271 	4937 	0.052915
39.03 	0.048845 	4934 	0.048132
39.07 	0.048944 	4924 	0.048468
39.11 	0.050497 	4931 	0.049665
39.15 	0.046592 	4915 	0.045758
39.19 	0.048403 	4917 	0.047927
39.23 	0.045888 	4925 	0.045532
39.27 	0.046232 	4910 	0.045636
39.31 	0.044226 	4884 	0.043746
39.35 	0.043364 	4935 	0.042889
39.39 	0.047271 	4929 	0.046677
39.43 	0.045814 	4933 	0.045220
39.47 	0.047735 	4923 	0.047140
39.51 	0.041430 	4924 	0.040716
39.55 	0.045334 	4919 	0.044382
39.59 	0.050285 	4912 	0.049808
39.63 	0.043885 	4922 	0.043171
39.67 	0.043965 	4913 	0.043727
39.71 	0.044944 	4895 	0.044226
39.75 	0.047078 	4928 	0.047078
39.79 	0.046488 	4926 	0.046369
39.83 	0.054520 	4934 	0.053689
39.87 	0.044873 	4925 	0.044159
39.91 	0.046323 	4922 	0.045847
39.95 	0.042930 	4915 	0.042096
39.99 	0.039335 	4932 	0.038979
40.03 	0.039367 	4928 	0.039129
40.07 	0.042454 	4923 	0.042097
40.11 	0.042514 	4916 	0.041918
40.15 	0.042133 	4913 	0.041656
40.19 	0.047474 	4929 	0.047118
40.23 	0.039132 	4932 	0.038657
40.27 	0.047397 	4937 	0.046448
40.31 	0.041709 	4939 	0.040879
40.35 	0.040862 	4919 	0.040743
40.39 	0.041777 	4931 	0.041539
40.43 	0.042666 	4922 	0.042309
40.47 	0.040260 	4918 	0.040141
40.51 	0.039618 	4922 	0.039023
40.55 	0.035656 	4908 	0.035059
40.59 	0.041928 	4937 	0.041691
40.63 	0.040365 	4930 	0.040246
40.67 	0.045823 	4932 	0.045586
40.71 	0.041971 	4932 	0.041496
40.75 	0.040154 	4931 	0.039679
40.79 	0.039399 	4924 	0.039042
40.83 	0.042411 	4928 	0.042054
40.87 	0.040787 	4928 	0.040550
40.91 	0.039001 	4923 	0.038168
40.95 	0.043151 	4913 	0.042793
40.99 	0.039399 	4924 	0.039042
41.03 	0.043221 	4905 	0.042604
41.07 	0.042394 	4930 	0.042156
41.11 	0.035664 	4935 	0.035545
41.15 	0.044728 	4941 	0.044016
41.19 	0.047262 	4930 	0.046905
41.23 	0.045151 	4939 	0.044676
41.27 	0.041371 	4931 	0.040777
41.31 	0.042773 	4933 	0.042179
41.35 	0.044755 	4938 	0.043925
41.39 	0.041557 	4933 	0.041438
41.43 	0.042605 	4929 	0.042248
41.47 	0.035932 	4926 	0.035575
41.51 	0.037449 	4940 	0.037094
41.55 	0.043769 	4935 	0.043175
41.59 	0.036489 	4933 	0.036014
41.63 	0.038882 	4938 	0.038170
41.67 	0.037854 	4940 	0.037261
41.71 	0.036482 	4934 	0.035650
41.75 	0.039156 	4929 	0.038562
41.79 	0.037217 	4944 	0.036980
41.83 	0.040584 	4928 	0.040228
41.87 	0.037893 	4935 	0.037280
41.91 	0.035859 	4936 	0.035622
41.95 	0.036098 	4931 	0.035742
41.99 	0.040775 	4905 	0.039819
42.03 	0.035230 	4939 	0.034874
42.07 	0.039295 	4937 	0.038821
42.11 	0.039434 	4945 	0.039197
42.15 	0.041515 	4938 	0.041396
42.19 	0.039120 	4908 	0.038642
42.23 	0.042927 	4892 	0.042548
42.27 	0.037957 	4874 	0.037716
42.31 	0.036457 	4855 	0.035854
42.35 	0.038446 	4838 	0.037961
42.39 	0.037677 	4804 	0.037067
42.43 	0.040067 	4792 	0.039456
42.47 	0.039035 	4765 	0.038666
42.51 	0.037951 	4743 	0.037827
42.55 	0.038233 	4708 	0.037735
42.59 	0.040601 	4729 	0.040229
42.63 	0.040561 	4709 	0.040436
42.67 	0.035867 	4684 	0.035742
42.71 	0.036886 	4663 	0.036509
42.75 	0.038337 	4617 	0.038083
42.79 	0.037102 	4582 	0.036590
42.83 	0.038139 	4536 	0.037494
42.87 	0.042454 	4499 	0.042324
42.91 	0.035682 	4456 	0.035419
42.95 	0.047781 	4416 	0.047118
42.99 	0.041733 	4385 	0.041065
43.03 	0.035772 	4333 	0.035096
43.07 	0.033985 	4296 	0.033576
43.11 	0.036193 	4255 	0.036055
43.15 	0.038516 	4206 	0.038516
43.19 	0.037434 	4194 	0.036876
43.23 	0.038036 	4154 	0.037331
43.27 	0.037272 	4105 	0.036986
43.31 	0.040696 	4079 	0.040265
43.35 	0.040427 	4032 	0.039700
43.39 	0.034483 	4002 	0.034190
43.43 	0.037626 	3960 	0.036887
43.47 	0.034940 	3921 	0.034791
43.51 	0.033015 	3877 	0.032864
43.55 	0.035762 	2964 	0.035367
43.59 	0.037801 	1746 	0.037465
43.63 	0.035964 	1001 	0.035379
43.67 	0.049801 	502 	0.047467
43.71 	0.020921 	239 	0.020921
43.75 	0.000000 	16 	0.000000

File: 25SC_s1_0031.002.dat
#F C:\frames\spec\25SC_s1_0031.002
#C title =s:31 frm:2 25SC_s1
#C wavelength =0.15406

#S 1  fr_average C:\frames\spec\25SC_s1_0031.002 C:\win32app\speccom\mask.axs chi 0 180 0 360 0.02
#C 2 theta =0.000000 to 180 deg
#C   q   =0.000000 to 81.568 nm^-1
#C  chi  =0.000000 to 360 deg
#C collumns:
#C  1 position (2theta or chi in degrees)
#C  2 average intensity (sum of all counts in the region divided with number of pixels)
#C  3 Number of pixels in region)
#C  4 error (sum of sqrt(intensity) for all pixels divided by number)
#N 4
#L TTh  Int  N_pix  Err
32.99 	0.098361 	61 	0.098361
33.03 	0.053918 	1391 	0.053918
33.07 	0.061951 	2050 	0.061094
33.11 	0.066305 	2579 	0.063315
33.15 	0.067022 	2999 	0.066632
33.19 	0.060443 	3342 	0.059742
33.23 	0.061311 	3523 	0.059815
33.27 	0.057300 	3630 	0.056816
33.31 	0.053005 	3660 	0.052205
33.35 	0.053600 	3694 	0.052808
33.39 	0.060606 	3729 	0.059664
33.43 	0.049189 	3761 	0.048410
33.47 	0.064771 	3798 	0.063383
33.51 	0.054260 	3815 	0.053338
33.55 	0.054124 	3843 	0.053210
33.59 	0.060309 	3880 	0.059379
33.63 	0.057923 	3919 	0.056105
33.67 	0.061457 	3954 	0.060420
33.71 	0.052830 	3975 	0.052388
33.75 	0.060265 	3999 	0.058800
33.79 	0.053205 	4041 	0.052480
33.83 	0.059259 	4050 	0.058825
33.87 	0.065191 	4111 	0.063743
33.91 	0.062666 	4149 	0.061254
33.95 	0.060990 	4181 	0.060290
33.99 	0.060238 	4200 	0.059262
34.03 	0.061734 	4244 	0.061320
34.07 	0.064199 	4268 	0.063512
34.11 	0.056020 	4302 	0.054386
34.15 	0.059801 	4331 	0.059125
34.19 	0.057084 	4362 	0.056010
34.23 	0.057819 	4393 	0.057019
34.27 	0.056536 	4422 	0.055189
34.31 	0.052041 	4458 	0.051100
34.35 	0.056869 	4484 	0.055824
34.39 	0.064194 	4502 	0.062762
34.43 	0.056400 	4539 	0.055626
34.47 	0.056402 	4592 	0.055509
34.51 	0.051238 	4606 	0.050729
34.55 	0.059660 	4643 	0.058650
34.59 	0.056898 	4675 	0.055896
34.63 	0.057113 	4710 	0.056242
34.67 	0.056528 	4741 	0.056034
34.71 	0.058540 	4766 	0.057188
34.75 	0.054493 	4808 	0.053883
34.79 	0.051202 	4824 	0.050595
34.83 	0.058001 	4862 	0.057278
34.87 	0.054232 	4868 	0.053630
34.91 	0.057763 	4882 	0.057283
34.95 	0.056237 	4890 	0.054920
34.99 	0.055340 	4897 	0.054622
35.03 	0.061501 	4943 	0.059842
35.07 	0.054251 	4940 	0.053540
35.11 	0.059430 	4947 	0.058483
35.15 	0.053879 	4937 	0.053009
35.19 	0.053622 	4942 	0.053503
35.23 	0.061072 	4945 	0.059967
35.27 	0.058003 	4948 	0.057293
35.31 	0.060207 	4933 	0.059257
35.35 	0.054229 	4942 	0.053399
35.39 	0.058645 	4945 	0.057697
35.43 	0.050882 	4933 	0.050407
35.47 	0.051511 	4931 	0.051154
35.51 	0.054811 	4926 	0.054217
35.55 	0.061072 	4945 	0.059769
35.59 	0.057230 	4945 	0.055926
35.63 	0.058062 	4943 	0.057232
35.67 	0.053015 	4942 	0.051948
35.71 	0.057322 	4937 	0.056492
35.75 	0.059217 	4931 	0.057910
35.79 	0.051500 	4932 	0.051144
35.83 	0.051961 	4946 	0.051251
35.87 	0.049970 	4923 	0.049236
35.91 	0.051553 	4927 	0.050720
35.95 	0.057555 	4917 	0.056960
35.99 	0.058311 	4939 	0.056869
36.03 	0.058264 	4943 	0.057790
36.07 	0.059729 	4939 	0.059017
36.11 	0.052749 	4929 	0.052036
36.15 	0.048188 	4939 	0.047713
36.19 	0.055466 	4940 	0.054754
36.23 	0.058156 	4935 	0.056969
36.27 	0.054619 	4925 	0.054262
36.31 	0.053571 	4928 	0.052739
36.35 	0.048489 	4929 	0.048132
36.39 	0.054460 	4921 	0.053627
36.43 	0.053774 	4928 	0.053061
36.47 	0.049433 	4936 	0.048721
36.51 	0.055139 	4933 	0.053813
36.55 	0.055409 	4927 	0.053982
36.59 	0.058311 	4939 	0.056869
36.63 	0.057595 	4931 	0.056882
36.67 	0.061055 	4930 	0.059985
36.71 	0.050803 	4921 	0.050088
36.75 	0.051780 	4944 	0.051306
36.79 	0.057509 	4921 	0.056080
36.83 	0.054527 	4915 	0.053573
36.87 	0.053803 	4944 	0.053092
36.91 	0.050597 	4941 	0.049748
36.95 	0.057369 	4933 	0.056419
36.99 	0.054103 	4935 	0.053510
37.03 	0.054224 	4924 	0.053510
37.07 	0.054306 	4935 	0.053000
37.11 	0.061601 	4935 	0.059702
37.15 	0.052353 	4909 	0.051637
37.19 	0.051371 	4925 	0.050895
37.23 	0.054087 	4918 	0.053134
37.27 	0.054352 	4894 	0.053634
37.31 	0.055522 	4935 	0.054572
37.35 	0.055691 	4938 	0.055097
37.39 	0.053742 	4931 	0.052791
37.43 	0.050487 	4932 	0.050012
37.47 	0.047271 	4929 	0.046796
37.51 	0.050679 	4933 	0.049967
37.55 	0.052535 	4930 	0.051704
37.59 	0.053917 	4915 	0.052963
37.63 	0.061395 	4919 	0.060442
37.67 	0.048532 	4904 	0.047457
37.71 	0.045040 	4929 	0.044683
37.75 	0.053036 	4940 	0.052444
37.79 	0.055172 	4930 	0.054222
37.83 	0.051829 	4920 	0.050996
37.87 	0.052237 	4939 	0.051150
37.91 	0.057809 	4930 	0.056502
37.95 	0.051616 	4921 	0.050782
37.99 	0.052728 	4912 	0.051655
38.03 	0.048482 	4909 	0.047269
38.07 	0.048075 	4909 	0.047598
38.11 	0.055319 	4935 	0.054607
38.15 	0.049004 	4918 	0.048527
38.19 	0.056998 	4930 	0.056285
38.23 	0.054678 	4938 	0.053729
38.27 	0.053955 	4930 	0.053242
38.31 	0.052365 	4927 	0.051889
38.35 	0.061080 	4928 	0.060010
38.39 	0.055408 	4909 	0.054692
38.43 	0.064483 	4916 	0.063292
38.47 	0.065009 	4907 	0.064770
38.51 	0.062247 	4932 	0.061059
38.55 	0.065640 	4936 	0.064691
38.59 	0.055849 	4924 	0.055611
38.63 	0.059504 	4924 	0.057700
38.67 	0.054892 	4937 	0.053824
38.71 	0.051787 	4924 	0.051311
38.75 	0.055815 	4927 	0.054626
38.79 	0.050669 	4934 	0.049600
38.83 	0.055499 	4919 	0.054665
38.87 	0.042150 	4911 	0.041912
38.91 	0.046706 	4903 	0.045631
38.95 	0.045954 	4918 	0.045120
38.99 	0.051853 	4937 	0.051023
39.03 	0.047629 	4934 	0.047510
39.07 	0.045898 	4924 	0.044569
39.11 	0.047049 	4931 	0.046099
39.15 	0.041913 	4915 	0.041436
39.19 	0.045353 	4917 	0.045115
39.23 	0.046701 	4925 	0.046582
39.27 	0.046640 	4910 	0.046043
39.31 	0.041564 	4884 	0.040965
39.35 	0.046201 	4935 	0.045726
39.39 	0.036721 	4929 	0.036721
39.43 	0.042976 	4933 	0.042620
39.47 	0.043266 	4923 	0.042433
39.51 	0.045695 	4924 	0.044743
39.55 	0.041878 	4919 	0.041283
39.59 	0.046621 	4912 	0.045905
39.63 	0.045104 	4922 	0.044271
39.67 	0.047222 	4913 	0.046387
39.71 	0.043922 	4895 	0.043324
39.75 	0.039164 	4928 	0.038451
39.79 	0.042022 	4926 	0.041784
39.83 	0.046210 	4934 	0.045141
39.87 	0.047513 	4925 	0.047037
39.91 	0.048761 	4922 	0.047908
39.95 	0.044151 	4915 	0.043555
39.99 	0.043593 	4932 	0.043118
40.03 	0.044440 	4928 	0.044083
40.07 	0.044891 	4923 	0.044296
40.11 	0.042107 	4916 	0.041015
40.15 	0.045390 	4913 	0.044794
40.19 	0.044837 	4929 	0.044599
40.23 	0.039132 	4932 	0.038776
40.27 	0.042536 	4937 	0.041824
40.31 	0.042721 	4939 	0.042128
40.35 	0.039439 	4919 	0.038843
40.39 	0.042385 	4931 	0.041910
40.43 	0.047745 	4922 	0.047150
40.47 	0.045954 	4918 	0.045596
40.51 	0.040634 	4922 	0.040039
40.55 	0.044825 	4908 	0.044347
40.59 	0.046790 	4937 	0.046177
40.63 	0.034888 	4930 	0.034176
40.67 	0.042579 	4932 	0.042223
40.71 	0.038727 	4932 	0.038252
40.75 	0.042791 	4931 	0.042434
40.79 	0.040617 	4924 	0.040023
40.83 	0.044846 	4928 	0.044608
40.87 	0.040584 	4928 	0.040228
40.91 	0.037579 	4923 	0.037341
40.95 	0.037452 	4913 	0.036498
40.99 	0.041430 	4924 	0.040716
41.03 	0.043833 	4905 	0.043355
41.07 	0.040365 	4930 	0.040246
41.11 	0.039108 	4935 	0.038634
41.15 	0.040882 	4941 	0.040290
41.19 	0.041785 	4930 	0.041429
41.23 	0.042114 	4939 	0.041877
41.27 	0.046035 	4931 	0.045184
41.31 	0.037300 	4933 	0.036825
41.35 	0.035034 	4938 	0.034441
41.39 	0.042773 	4933 	0.042417
41.43 	0.043417 	4929 	0.042941
41.47 	0.038774 	4926 	0.038536
41.51 	0.044332 	4940 	0.043621
41.55 	0.046606 	4935 	0.046012
41.59 	0.037705 	4933 	0.037468
41.63 	0.039287 	4938 	0.039050
41.67 	0.041903 	4940 	0.041666
41.71 	0.041751 	4934 	0.041039
41.75 	0.040982 	4929 	0.040150
41.79 	0.035599 	4944 	0.035125
41.83 	0.039773 	4928 	0.039535
41.87 	0.041337 	4935 	0.040981
41.91 	0.036872 	4936 	0.036516
41.95 	0.041979 	4931 	0.041504
41.99 	0.036493 	4905 	0.036374
42.03 	0.041101 	4939 	0.040746
42.07 	0.039093 	4937 	0.038974
42.11 	0.040243 	4945 	0.040006
42.15 	0.040300 	4938 	0.039944
42.19 	0.041769 	4908 	0.041530
42.23 	0.037817 	4892 	0.037338
42.27 	0.038982 	4874 	0.038381
42.31 	0.035427 	4855 	0.035186
42.35 	0.037619 	4838 	0.037236
42.39 	0.036844 	4804 	0.036458
42.43 	0.039232 	4792 	0.037990
42.47 	0.032109 	4765 	0.031863
42.51 	0.036475 	4743 	0.035857
42.55 	0.039720 	4708 	0.038849
42.59 	0.040601 	4729 	0.039733
42.63 	0.045657 	4709 	0.045035
42.67 	0.037575 	4684 	0.037325
42.71 	0.037101 	4663 	0.036849
42.75 	0.038553 	4617 	0.038046
42.79 	0.037320 	4582 	0.036809
42.83 	0.037257 	4536 	0.037257
42.87 	0.036675 	4499 	0.036545
42.91 	0.037253 	4456 	0.037253
42.95 	0.042572 	4416 	0.042307
42.99 	0.038769 	4385 	0.038368
43.03 	0.035772 	4333 	0.034961
43.07 	0.039106 	4296 	0.038288
43.11 	0.040188 	4255 	0.039362
43.15 	0.036377 	4206 	0.035820
43.19 	0.038627 	4194 	0.038208
43.23 	0.038758 	4154 	0.038194
43.27 	0.036784 	4105 	0.036214
43.31 	0.043638 	4079 	0.043064
43.35 	0.039683 	4032 	0.039392
43.39 	0.037481 	4002 	0.037042
43.43 	0.044192 	3960 	0.043132
43.47 	0.039276 	3921 	0.038678
43.51 	0.031210 	3877 	0.031059
43.55 	0.039136 	2964 	0.038543
43.59 	0.033792 	1746 	0.033792
43.63 	0.038961 	1001 	0.038961
43.67 	0.025896 	502 	0.025896
43.71 	0.041841 	239 	0.041841
43.75 	0.000000 	16 	0.000000