Folder: Bessy-II-KMC-II-insitu-sin2psi/Example_Data (part 105)

File: 25SC_s1_0042.002.dat
#F C:\frames\spec\25SC_s1_0042.002
#C title =s:42 frm:2 25SC_s1
#C wavelength =0.15406

#S 1  fr_average C:\frames\spec\25SC_s1_0042.002 C:\win32app\speccom\mask.axs chi 0 180 0 360 0.02
#C 2 theta =0.000000 to 180 deg
#C   q   =0.000000 to 81.568 nm^-1
#C  chi  =0.000000 to 360 deg
#C collumns:
#C  1 position (2theta or chi in degrees)
#C  2 average intensity (sum of all counts in the region divided with number of pixels)
#C  3 Number of pixels in region)
#C  4 error (sum of sqrt(intensity) for all pixels divided by number)
#N 4
#L TTh  Int  N_pix  Err
32.99 	0.049180 	61 	0.049180
33.03 	0.063264 	1391 	0.062000
33.07 	0.065366 	2050 	0.064223
33.11 	0.056223 	2579 	0.055769
33.15 	0.052351 	2999 	0.051374
33.19 	0.061041 	3342 	0.059990
33.23 	0.063298 	3523 	0.061636
33.27 	0.056198 	3630 	0.055230
33.31 	0.056011 	3660 	0.054731
33.35 	0.058744 	3694 	0.057475
33.39 	0.067578 	3729 	0.066165
33.43 	0.060888 	3761 	0.059331
33.47 	0.061875 	3798 	0.060178
33.51 	0.054784 	3815 	0.054323
33.55 	0.058548 	3843 	0.058243
33.59 	0.057216 	3880 	0.056915
33.63 	0.065323 	3919 	0.064276
33.67 	0.060445 	3954 	0.059704
33.71 	0.059371 	3975 	0.058782
33.75 	0.067767 	3999 	0.065546
33.79 	0.055927 	4041 	0.054743
33.83 	0.063951 	4050 	0.062504
33.87 	0.053515 	4111 	0.052518
33.91 	0.060979 	4149 	0.060131
33.95 	0.058359 	4181 	0.057238
33.99 	0.055000 	4200 	0.054303
34.03 	0.050895 	4244 	0.050067
34.07 	0.061387 	4268 	0.059832
34.11 	0.059042 	4302 	0.058225
34.15 	0.055645 	4331 	0.054834
34.19 	0.054104 	4362 	0.053298
34.23 	0.060096 	4393 	0.058762
34.27 	0.052691 	4422 	0.051499
34.31 	0.054957 	4458 	0.053906
34.35 	0.060437 	4484 	0.059784
34.39 	0.053754 	4502 	0.053494
34.43 	0.057722 	4539 	0.056819
34.47 	0.057709 	4592 	0.057199
34.51 	0.059053 	4606 	0.058290
34.55 	0.060737 	4643 	0.059601
34.59 	0.058824 	4675 	0.057425
34.63 	0.054989 	4710 	0.054243
34.67 	0.052731 	4741 	0.051990
34.71 	0.056022 	4766 	0.055530
34.75 	0.059484 	4808 	0.059119
34.79 	0.055763 	4824 	0.055399
34.83 	0.055533 	4862 	0.054930
34.87 	0.056902 	4868 	0.055579
34.91 	0.058378 	4882 	0.057658
34.95 	0.057669 	4890 	0.056710
34.99 	0.059016 	4897 	0.057939
35.03 	0.055027 	4943 	0.054672
35.07 	0.058704 	4940 	0.057993
35.11 	0.057004 	4947 	0.055564
35.15 	0.055499 	4937 	0.054906
35.19 	0.061716 	4942 	0.060768
35.23 	0.053185 	4945 	0.052356
35.27 	0.057599 	4948 	0.056652
35.31 	0.056355 	4933 	0.055643
35.35 	0.058883 	4942 	0.057797
35.39 	0.052983 	4945 	0.052272
35.43 	0.056558 	4933 	0.056083
35.47 	0.062868 	4931 	0.062155
35.51 	0.058059 	4926 	0.057207
35.55 	0.052174 	4945 	0.051582
35.59 	0.059656 	4945 	0.058808
35.63 	0.050577 	4943 	0.049984
35.67 	0.053217 	4942 	0.052625
35.71 	0.048005 	4937 	0.047293
35.75 	0.062259 	4931 	0.061665
35.79 	0.057786 	4932 	0.057311
35.83 	0.054387 	4946 	0.054151
35.87 	0.054641 	4923 	0.053928
35.91 	0.061701 	4927 	0.060869
35.95 	0.060809 	4917 	0.059737
35.99 	0.056287 	4939 	0.055456
36.03 	0.058062 	4943 	0.057331
36.07 	0.053250 	4939 	0.052657
36.11 	0.053763 	4929 	0.052793
36.15 	0.058311 	4939 	0.057718
36.19 	0.055061 	4940 	0.054349
36.23 	0.057953 	4935 	0.057479
36.27 	0.051777 	4925 	0.050944
36.31 	0.052963 	4928 	0.052249
36.35 	0.058227 	4929 	0.057514
36.39 	0.059134 	4921 	0.058301
36.43 	0.059456 	4928 	0.058743
36.47 	0.052472 	4936 	0.052116
36.51 	0.051895 	4933 	0.051064
36.55 	0.061498 	4927 	0.060527
36.59 	0.048188 	4939 	0.047476
36.63 	0.060231 	4931 	0.059043
36.67 	0.050913 	4930 	0.050319
36.71 	0.053241 	4921 	0.052269
36.75 	0.048544 	4944 	0.047714
36.79 	0.052835 	4921 	0.052220
36.83 	0.051475 	4915 	0.050879
36.87 	0.056230 	4944 	0.055400
36.91 	0.047966 	4941 	0.047610
36.95 	0.055747 	4933 	0.055272
36.99 	0.054711 	4935 	0.053762
37.03 	0.057474 	4924 	0.056740
37.07 	0.050861 	4935 	0.050149
37.11 	0.047619 	4935 	0.047144
37.15 	0.060705 	4909 	0.059392
37.19 	0.049949 	4925 	0.049592
37.23 	0.050427 	4918 	0.049712
37.27 	0.055783 	4894 	0.054945
37.31 	0.054103 	4935 	0.053035
37.35 	0.051640 	4938 	0.050553
37.39 	0.049686 	4931 	0.048735
37.43 	0.054542 	4932 	0.053235
37.47 	0.051329 	4929 	0.050477
37.51 	0.047638 	4933 	0.047045
37.55 	0.050101 	4930 	0.049270
37.59 	0.057375 	4915 	0.055926
37.63 	0.048994 	4919 	0.048398
37.67 	0.048328 	4904 	0.047492
37.71 	0.052546 	4929 	0.052190
37.75 	0.053441 	4940 	0.052848
37.79 	0.058012 	4930 	0.056943
37.83 	0.054065 	4920 	0.053470
37.87 	0.052237 	4939 	0.051526
37.91 	0.051521 	4930 	0.050571
37.95 	0.054054 	4921 	0.052983
37.99 	0.052932 	4912 	0.051978
38.03 	0.048279 	4909 	0.047324
38.07 	0.055408 	4909 	0.054573
38.11 	0.050051 	4935 	0.049576
38.15 	0.049207 	4918 	0.048611
38.19 	0.056187 	4930 	0.055593
38.23 	0.055488 	4938 	0.054420
38.27 	0.055375 	4930 	0.054544
38.31 	0.059062 	4927 	0.057715
38.35 	0.058442 	4928 	0.056777
38.39 	0.066612 	4909 	0.065658
38.43 	0.068145 	4916 	0.067192
38.47 	0.060526 	4907 	0.059810
38.51 	0.067924 	4932 	0.066004
38.55 	0.066653 	4936 	0.065466
38.59 	0.056255 	4924 	0.055422
38.63 	0.063972 	4924 	0.062783
38.67 	0.053474 	4937 	0.052643
38.71 	0.054021 	4924 	0.053069
38.75 	0.057642 	4927 	0.056096
38.79 	0.053709 	4934 	0.052740
38.83 	0.046554 	4919 	0.045601
38.87 	0.044390 	4911 	0.044271
38.91 	0.054456 	4903 	0.054098
38.95 	0.044327 	4918 	0.043851
38.99 	0.049625 	4937 	0.049032
39.03 	0.045399 	4934 	0.044687
39.07 	0.049553 	4924 	0.049196
39.11 	0.044210 	4931 	0.043597
39.15 	0.045371 	4915 	0.044656
39.19 	0.048810 	4917 	0.048195
39.23 	0.043655 	4925 	0.042941
39.27 	0.038697 	4910 	0.037742
39.31 	0.046069 	4884 	0.045469
39.35 	0.047416 	4935 	0.046467
39.39 	0.041591 	4929 	0.040996
39.43 	0.045611 	4933 	0.044899
39.47 	0.041235 	4923 	0.040402
39.51 	0.040211 	4924 	0.039378
39.55 	0.045334 	4919 	0.044739
39.59 	0.044992 	4912 	0.044515
39.63 	0.045510 	4922 	0.044796
39.67 	0.044779 	4913 	0.044302
39.71 	0.049030 	4895 	0.047713
39.75 	0.049107 	4928 	0.048275
39.79 	0.048315 	4926 	0.047720
39.83 	0.049047 	4934 	0.048216
39.87 	0.045076 	4925 	0.044244
39.91 	0.050792 	4922 	0.050078
39.95 	0.044964 	4915 	0.044607
39.99 	0.050081 	4932 	0.049368
40.03 	0.043019 	4928 	0.042544
40.07 	0.043469 	4923 	0.042874
40.11 	0.041904 	4916 	0.041308
40.15 	0.044779 	4913 	0.044183
40.19 	0.048083 	4929 	0.047370
40.23 	0.042782 	4932 	0.042307
40.27 	0.044156 	4937 	0.043919
40.31 	0.040899 	4939 	0.040306
40.35 	0.045131 	4919 	0.044059
40.39 	0.043399 	4931 	0.042924
40.43 	0.043681 	4922 	0.043324
40.47 	0.046564 	4918 	0.045948
40.51 	0.042462 	4922 	0.042105
40.55 	0.045844 	4908 	0.045127
40.59 	0.040308 	4937 	0.039833
40.63 	0.047870 	4930 	0.047514
40.67 	0.042985 	4932 	0.042628
40.71 	0.040754 	4932 	0.040279
40.75 	0.039951 	4931 	0.039476
40.79 	0.040820 	4924 	0.040107
40.83 	0.042411 	4928 	0.042054
40.87 	0.044643 	4928 	0.043930
40.91 	0.033922 	4923 	0.033803
40.95 	0.043151 	4913 	0.042793
40.99 	0.040008 	4924 	0.039651
41.03 	0.039551 	4905 	0.038596
41.07 	0.045233 	4930 	0.044877
41.11 	0.045390 	4935 	0.044678
41.15 	0.035418 	4941 	0.035181
41.19 	0.043205 	4930 	0.043086
41.23 	0.038267 	4939 	0.038267
41.27 	0.036909 	4931 	0.036553
41.31 	0.040746 	4933 	0.040152
41.35 	0.039287 	4938 	0.038457
41.39 	0.043989 	4933 	0.043158
41.43 	0.043214 	4929 	0.042857
41.47 	0.045067 	4926 	0.044591
41.51 	0.041498 	4940 	0.041261
41.55 	0.041135 	4935 	0.040660
41.59 	0.045408 	4933 	0.044696
41.63 	0.044350 	4938 	0.043757
41.67 	0.044332 	4940 	0.043383
41.71 	0.039927 	4934 	0.039571
41.75 	0.037533 	4929 	0.037533
41.79 	0.041060 	4944 	0.040230
41.83 	0.040787 	4928 	0.040193
41.87 	0.042148 	4935 	0.041297
41.91 	0.040316 	4936 	0.039723
41.95 	0.039140 	4931 	0.039021
41.99 	0.039144 	4905 	0.038785
42.03 	0.031383 	4939 	0.030671
42.07 	0.042333 	4937 	0.041621
42.11 	0.034580 	4945 	0.034462
42.15 	0.032199 	4938 	0.032199
42.19 	0.040750 	4908 	0.040272
42.23 	0.039657 	4892 	0.039297
42.27 	0.045753 	4874 	0.045392
42.31 	0.040989 	4855 	0.040023
42.35 	0.038032 	4838 	0.037911
42.39 	0.036636 	4804 	0.036148
42.43 	0.034432 	4792 	0.034188
42.47 	0.044071 	4765 	0.043457
42.51 	0.036475 	4743 	0.036351
42.55 	0.040994 	4708 	0.040745
42.59 	0.038909 	4729 	0.038413
42.63 	0.039499 	4709 	0.039250
42.67 	0.040564 	4684 	0.040314
42.71 	0.039031 	4663 	0.038151
42.75 	0.040502 	4617 	0.039995
42.79 	0.042558 	4582 	0.041791
42.83 	0.035935 	4536 	0.035676
42.87 	0.039342 	4499 	0.038821
42.91 	0.039048 	4456 	0.038523
42.95 	0.035326 	4416 	0.034795
42.99 	0.041277 	4385 	0.040743
43.03 	0.038772 	4333 	0.038231
43.07 	0.036080 	4296 	0.035807
43.11 	0.040893 	4255 	0.040618
43.15 	0.039467 	4206 	0.039328
43.19 	0.042442 	4194 	0.042023
43.23 	0.038758 	4154 	0.038476
43.27 	0.038733 	4105 	0.038448
43.31 	0.040206 	4079 	0.039919
43.35 	0.041171 	4032 	0.040590
43.39 	0.029485 	4002 	0.029193
43.43 	0.038889 	3960 	0.038445
43.47 	0.041316 	3921 	0.041017
43.51 	0.039464 	3877 	0.038708
43.55 	0.041835 	2964 	0.041242
43.59 	0.038946 	1746 	0.038946
43.63 	0.033966 	1001 	0.033381
43.67 	0.043825 	502 	0.043825
43.71 	0.025105 	239 	0.025105
43.75 	0.000000 	16 	0.000000

File: 25SC_s1_0042.003.dat
#F C:\frames\spec\25SC_s1_0042.003
#C title =s:42 frm:3 25SC_s1
#C wavelength =0.15406

#S 1  fr_average C:\frames\spec\25SC_s1_0042.003 C:\win32app\speccom\mask.axs chi 0 180 0 360 0.02
#C 2 theta =0.000000 to 180 deg
#C   q   =0.000000 to 81.568 nm^-1
#C  chi  =0.000000 to 360 deg
#C collumns:
#C  1 position (2theta or chi in degrees)
#C  2 average intensity (sum of all counts in the region divided with number of pixels)
#C  3 Number of pixels in region)
#C  4 error (sum of sqrt(intensity) for all pixels divided by number)
#N 4
#L TTh  Int  N_pix  Err
32.99 	0.016393 	61 	0.016393
33.03 	0.072610 	1391 	0.071767
33.07 	0.057073 	2050 	0.055930
33.11 	0.061652 	2579 	0.060516
33.15 	0.060353 	2999 	0.060158
33.19 	0.062537 	3342 	0.061310
33.23 	0.057054 	3523 	0.056389
33.27 	0.061157 	3630 	0.060027
33.31 	0.058197 	3660 	0.057557
33.35 	0.059015 	3694 	0.057429
33.39 	0.055243 	3729 	0.054457
33.43 	0.057166 	3761 	0.056231
33.47 	0.065561 	3798 	0.064327
33.51 	0.064220 	3815 	0.063145
33.55 	0.059068 	3843 	0.057849
33.59 	0.060309 	3880 	0.059554
33.63 	0.052820 	3919 	0.052072
33.67 	0.055134 	3954 	0.053924
33.71 	0.052327 	3975 	0.051443
33.75 	0.066767 	3999 	0.065302
33.79 	0.053452 	4041 	0.052582
33.83 	0.061975 	4050 	0.061107
33.87 	0.059596 	4111 	0.059169
33.91 	0.059291 	4149 	0.058562
33.95 	0.058120 	4181 	0.057700
33.99 	0.060238 	4200 	0.059401
34.03 	0.063148 	4244 	0.061906
34.07 	0.059278 	4268 	0.058318
34.11 	0.063691 	4302 	0.062466
34.15 	0.057492 	4331 	0.056005
34.19 	0.057772 	4362 	0.056944
34.23 	0.049169 	4393 	0.048636
34.27 	0.057666 	4422 	0.056077
34.31 	0.067070 	4458 	0.065998
34.35 	0.057315 	4484 	0.056270
34.39 	0.053976 	4502 	0.053065
34.43 	0.059044 	4539 	0.058786
34.47 	0.063371 	4592 	0.062351
34.51 	0.053626 	4606 	0.052735
34.55 	0.055568 	4643 	0.054558
34.59 	0.060963 	4675 	0.060085
34.63 	0.052866 	4710 	0.051996
34.67 	0.055684 	4741 	0.054820
34.71 	0.053084 	4766 	0.052224
34.75 	0.057196 	4808 	0.056465
34.79 	0.060531 	4824 	0.059296
34.83 	0.057384 	4862 	0.056058
34.87 	0.048685 	4868 	0.047963
34.91 	0.058173 	4882 	0.057573
34.95 	0.065031 	4890 	0.063953
34.99 	0.056769 	4897 	0.056171
35.03 	0.064940 	4943 	0.063755
35.07 	0.055061 	4940 	0.054586
35.11 	0.054174 	4947 	0.053701
35.15 	0.058538 	4937 	0.057944
35.19 	0.055038 	4942 	0.053735
35.23 	0.057027 	4945 	0.055961
35.27 	0.057801 	4948 	0.057091
35.31 	0.060004 	4933 	0.059054
35.35 	0.055443 	4942 	0.054613
35.39 	0.062083 	4945 	0.061116
35.43 	0.058382 	4933 	0.056344
35.47 	0.057189 	4931 	0.056120
35.51 	0.054811 	4926 	0.054217
35.55 	0.058038 	4945 	0.057683
35.59 	0.063296 	4945 	0.062704
35.63 	0.055230 	4943 	0.054400
35.67 	0.054634 	4942 	0.053310
35.71 	0.055904 	4937 	0.054461
35.75 	0.059826 	4931 	0.058400
35.79 	0.059002 	4932 	0.058527
35.83 	0.057825 	4946 	0.056759
35.87 	0.053016 	4923 	0.052540
35.91 	0.055409 	4927 	0.054339
35.95 	0.054912 	4917 	0.054078
35.99 	0.051630 	4939 	0.050918
36.03 	0.060894 	4943 	0.059472
36.07 	0.057906 	4939 	0.056958
36.11 	0.062284 	4929 	0.061571
36.15 	0.047378 	4939 	0.046311
36.19 	0.053036 	4940 	0.052444
36.23 	0.059980 	4935 	0.058892
36.27 	0.048325 	4925 	0.047017
36.31 	0.057021 	4928 	0.056189
36.35 	0.051532 	4929 	0.050700
36.39 	0.055883 	4921 	0.054554
36.43 	0.057630 	4928 	0.056679
36.47 	0.051661 	4936 	0.050949
36.51 	0.052301 	4933 	0.051826
36.55 	0.052973 	4927 	0.052022
36.59 	0.060539 	4939 	0.059333
36.63 	0.050294 	4931 	0.049819
36.67 	0.045842 	4930 	0.044891
36.71 	0.054664 	4921 	0.053473
36.75 	0.052791 	4944 	0.051962
36.79 	0.059134 	4921 	0.058777
36.83 	0.047609 	4915 	0.046537
36.87 	0.052994 	4944 	0.052283
36.91 	0.059097 	4941 	0.058267
36.95 	0.051895 	4933 	0.050945
36.99 	0.057953 	4935 	0.056766
37.03 	0.057677 	4924 	0.056606
37.07 	0.051874 	4935 	0.051281
37.11 	0.056940 	4935 	0.055991
37.15 	0.051334 	4909 	0.050499
37.19 	0.057056 	4925 	0.055866
37.23 	0.050020 	4918 	0.049425
37.27 	0.050061 	4894 	0.049343
37.31 	0.048835 	4935 	0.048241
37.35 	0.049615 	4938 	0.048548
37.39 	0.046441 	4931 	0.045847
37.43 	0.050689 	4932 	0.049977
37.47 	0.051938 	4929 	0.050749
37.51 	0.056152 	4933 	0.055677
37.55 	0.050710 	4930 	0.049621
37.59 	0.050051 	4915 	0.049574
37.63 	0.051027 	4919 	0.050669
37.67 	0.055873 	4904 	0.054439
37.71 	0.051126 	4929 	0.050413
37.75 	0.042510 	4940 	0.042154
37.79 	0.053753 	4930 	0.052327
37.83 	0.051829 	4920 	0.050877
37.87 	0.045556 	4939 	0.044844
37.91 	0.053753 	4930 	0.053515
37.95 	0.057102 	4921 	0.056249
37.99 	0.052321 	4912 	0.051248
38.03 	0.055001 	4909 	0.053927
38.07 	0.053779 	4909 	0.052943
38.11 	0.051469 	4935 	0.050757
38.15 	0.057137 	4918 	0.056541
38.19 	0.048479 	4930 	0.047647
38.23 	0.056501 	4938 	0.055314
38.27 	0.056795 	4930 	0.056320
38.31 	0.057033 	4927 	0.055844
38.35 	0.055195 	4928 	0.054125
38.39 	0.058464 	4909 	0.057629
38.43 	0.062042 	4916 	0.061665
38.47 	0.062564 	4907 	0.061609
38.51 	0.062652 	4932 	0.061346
38.55 	0.056726 	4936 	0.055895
38.59 	0.053615 	4924 	0.053020
38.63 	0.058083 	4924 	0.056655
38.67 	0.052258 	4937 	0.051784
38.71 	0.057880 	4924 	0.056433
38.75 	0.060889 	4927 	0.059819
38.79 	0.051682 	4934 	0.050732
38.83 	0.051027 	4919 	0.050312
38.87 	0.053553 	4911 	0.052957
38.91 	0.047318 	4903 	0.046840
38.95 	0.050224 	4918 	0.049985
38.99 	0.048005 	4937 	0.047293
39.03 	0.047629 	4934 	0.047273
39.07 	0.049350 	4924 	0.048398
39.11 	0.049888 	4931 	0.048700
39.15 	0.051475 	4915 	0.050879
39.19 	0.047183 	4917 	0.046349
39.23 	0.048122 	4925 	0.047646
39.27 	0.048880 	4910 	0.048283
39.31 	0.041769 	4884 	0.041049
39.35 	0.043161 	4935 	0.042686
39.39 	0.052546 	4929 	0.052308
39.43 	0.048044 	4933 	0.047331
39.47 	0.046516 	4923 	0.046278
39.51 	0.051178 	4924 	0.050464
39.55 	0.045131 	4919 	0.044774
39.59 	0.049267 	4912 	0.048313
39.63 	0.048557 	4922 	0.047724
39.67 	0.048239 	4913 	0.047762
39.71 	0.042492 	4895 	0.042014
39.75 	0.047484 	4928 	0.047008
39.79 	0.048518 	4926 	0.047567
39.83 	0.048845 	4934 	0.048232
39.87 	0.052589 	4925 	0.052113
39.91 	0.045104 	4922 	0.044866
39.95 	0.047406 	4915 	0.046452
39.99 	0.049270 	4932 	0.048201
40.03 	0.044846 	4928 	0.043756
40.07 	0.037782 	4923 	0.037167
40.11 	0.047193 	4916 	0.046597
40.15 	0.048646 	4913 	0.047693
40.19 	0.041793 	4929 	0.040962
40.23 	0.042985 	4932 	0.042391
40.27 	0.044561 	4937 	0.044324
40.31 	0.049403 	4939 	0.048691
40.35 	0.050417 	4919 	0.049583
40.39 	0.045427 	4931 	0.044714
40.43 	0.041650 	4922 	0.040698
40.47 	0.044937 	4918 	0.044103
40.51 	0.041853 	4922 	0.041853
40.55 	0.045029 	4908 	0.044670
40.59 	0.045169 	4937 	0.044339
40.63 	0.047059 	4930 	0.046108
40.67 	0.041768 	4932 	0.040818
40.71 	0.050892 	4932 	0.050180
40.75 	0.042791 	4931 	0.042315
40.79 	0.047319 	4924 	0.046368
40.83 	0.049716 	4928 	0.048408
40.87 	0.045860 	4928 	0.044909
40.91 	0.047329 	4923 	0.047091
40.95 	0.042337 	4913 	0.041740
40.99 	0.045898 	4924 	0.044827
41.03 	0.041590 	4905 	0.041351
41.07 	0.038134 	4930 	0.037421
41.11 	0.047619 	4935 	0.046669
41.15 	0.047156 	4941 	0.046564
41.19 	0.041176 	4930 	0.040701
41.23 	0.048188 	4939 	0.047595
41.27 	0.045427 	4931 	0.044714
41.31 	0.045814 	4933 	0.045458
41.35 	0.040502 	4938 	0.040265
41.39 	0.044192 	4933 	0.043480
41.43 	0.046054 	4929 	0.044747
41.47 	0.041819 	4926 	0.041462
41.51 	0.048178 	4940 	0.047348
41.55 	0.040122 	4935 	0.039765
41.59 	0.046422 	4933 	0.045591
41.63 	0.043135 	4938 	0.043016
41.67 	0.047976 	4940 	0.047383
41.71 	0.041548 	4934 	0.041311
41.75 	0.043619 	4929 	0.043025
41.79 	0.043285 	4944 	0.042929
41.83 	0.039773 	4928 	0.039297
41.87 	0.040729 	4935 	0.040373
41.91 	0.038088 	4936 	0.037969
41.95 	0.042791 	4931 	0.041959
41.99 	0.040775 	4905 	0.040416
42.03 	0.043329 	4939 	0.042736
42.07 	0.040105 	4937 	0.039631
42.11 	0.039636 	4945 	0.039399
42.15 	0.041717 	4938 	0.041361
42.19 	0.036675 	4908 	0.036555
42.23 	0.042314 	4892 	0.041835
42.27 	0.040419 	4874 	0.040058
42.31 	0.039135 	4855 	0.038652
42.35 	0.038652 	4838 	0.038269
42.39 	0.042048 	4804 	0.041926
42.43 	0.039649 	4792 	0.039160
42.47 	0.040714 	4765 	0.040591
42.51 	0.041746 	4743 	0.041252
42.55 	0.044180 	4708 	0.043931
42.59 	0.041658 	4729 	0.041039
42.63 	0.041622 	4709 	0.041374
42.67 	0.039710 	4684 	0.039334
42.71 	0.033669 	4663 	0.033418
42.75 	0.040719 	4617 	0.040212
42.79 	0.039066 	4582 	0.038555
42.83 	0.043210 	4536 	0.042693
42.87 	0.040676 	4499 	0.040415
42.91 	0.039946 	4456 	0.039157
42.95 	0.041893 	4416 	0.041760
42.99 	0.041277 	4385 	0.041010
43.03 	0.042696 	4333 	0.042425
43.07 	0.045624 	4296 	0.045078
43.11 	0.044653 	4255 	0.043965
43.15 	0.040656 	4206 	0.040378
43.19 	0.039103 	4194 	0.038545
43.23 	0.037313 	4154 	0.037031
43.27 	0.043362 	4105 	0.042648
43.31 	0.040206 	4079 	0.039488
43.35 	0.038442 	4032 	0.038297
43.39 	0.042729 	4002 	0.041997
43.43 	0.041919 	3960 	0.041623
43.47 	0.044121 	3921 	0.043225
43.51 	0.046686 	3877 	0.046383
43.55 	0.039474 	2964 	0.038881
43.59 	0.042383 	1746 	0.042047
43.63 	0.028971 	1001 	0.028971
43.67 	0.043825 	502 	0.043825
43.71 	0.029289 	239 	0.029289
43.75 	0.000000 	16 	0.000000