Folder: Bessy-II-KMC-II-insitu-sin2psi/Example_Data (part 47)

File: 25SC_s1_0019.001.dat
#F C:\frames\spec\25SC_s1_0019.001
#C title =s:19 frm:1 25SC_s1
#C wavelength =0.15406

#S 1  fr_average C:\frames\spec\25SC_s1_0019.001 C:\win32app\speccom\mask.axs chi 0 180 0 360 0.02
#C 2 theta =0.000000 to 180 deg
#C   q   =0.000000 to 81.568 nm^-1
#C  chi  =0.000000 to 360 deg
#C collumns:
#C  1 position (2theta or chi in degrees)
#C  2 average intensity (sum of all counts in the region divided with number of pixels)
#C  3 Number of pixels in region)
#C  4 error (sum of sqrt(intensity) for all pixels divided by number)
#N 4
#L TTh  Int  N_pix  Err
32.99 	0.032787 	61 	0.032787
33.03 	0.056794 	1391 	0.056373
33.07 	0.054634 	2050 	0.054063
33.11 	0.055836 	2579 	0.054927
33.15 	0.065355 	2999 	0.064378
33.19 	0.060742 	3342 	0.059690
33.23 	0.052228 	3523 	0.051896
33.27 	0.059780 	3630 	0.058301
33.31 	0.063115 	3660 	0.062128
33.35 	0.051705 	3694 	0.051071
33.39 	0.073746 	3729 	0.071704
33.43 	0.055039 	3761 	0.053948
33.47 	0.053186 	3798 	0.052877
33.51 	0.052425 	3815 	0.052118
33.55 	0.060630 	3843 	0.059410
33.59 	0.050515 	3880 	0.049157
33.63 	0.055882 	3919 	0.055284
33.67 	0.060445 	3954 	0.060149
33.71 	0.056352 	3975 	0.055910
33.75 	0.059515 	3999 	0.058782
33.79 	0.063351 	4041 	0.062457
33.83 	0.055062 	4050 	0.053760
33.87 	0.061056 	4111 	0.060343
33.91 	0.055435 	4149 	0.055153
33.95 	0.056446 	4181 	0.056026
33.99 	0.063095 	4200 	0.061979
34.03 	0.056079 	4244 	0.055113
34.07 	0.055295 	4268 	0.054883
34.11 	0.061134 	4302 	0.060045
34.15 	0.053106 	4331 	0.052159
34.19 	0.053874 	4362 	0.053740
34.23 	0.058047 	4393 	0.057358
34.27 	0.052465 	4422 	0.051405
34.31 	0.051593 	4458 	0.051330
34.35 	0.053524 	4484 	0.052870
34.39 	0.054865 	4502 	0.053563
34.43 	0.056620 	4539 	0.055846
34.47 	0.057709 	4592 	0.057454
34.51 	0.052757 	4606 	0.052249
34.55 	0.058583 	4643 	0.057573
34.59 	0.054759 	4675 	0.054258
34.63 	0.051380 	4710 	0.050489
34.67 	0.061379 	4741 	0.060515
34.71 	0.058330 	4766 	0.057961
34.75 	0.060732 	4808 	0.059514
34.79 	0.055141 	4824 	0.054291
34.83 	0.052653 	4862 	0.052171
34.87 	0.063476 	4868 	0.062633
34.91 	0.061655 	4882 	0.060575
34.95 	0.055010 	4890 	0.054291
34.99 	0.050643 	4897 	0.049567
35.03 	0.054420 	4943 	0.053709
35.07 	0.055668 	4940 	0.055312
35.11 	0.058217 	4947 	0.057743
35.15 	0.058335 	4937 	0.057030
35.19 	0.052408 	4942 	0.051341
35.23 	0.061072 	4945 	0.059413
35.27 	0.058205 	4948 	0.056528
35.31 	0.058180 	4933 	0.057230
35.35 	0.053420 	4942 	0.052827
35.39 	0.055207 	4945 	0.054023
35.43 	0.061626 	4933 	0.061270
35.47 	0.057595 	4931 	0.055575
35.51 	0.060292 	4926 	0.059222
35.55 	0.056016 	4945 	0.055305
35.59 	0.044085 	4945 	0.043848
35.63 	0.057860 	4943 	0.057030
35.67 	0.059692 	4942 	0.058863
35.71 	0.055499 	4937 	0.054669
35.75 	0.056784 	4931 	0.056427
35.79 	0.053933 	4932 	0.052845
35.83 	0.052770 	4946 	0.051803
35.87 	0.056876 	4923 	0.056043
35.91 	0.059265 	4927 	0.058433
35.95 	0.063047 	4917 	0.061855
35.99 	0.058919 	4939 	0.057614
36.03 	0.061501 	4943 	0.060316
36.07 	0.058514 	4939 	0.057446
36.11 	0.056401 	4929 	0.055807
36.15 	0.051022 	4939 	0.049955
36.19 	0.051012 	4940 	0.050518
36.23 	0.062411 	4935 	0.062055
36.27 	0.059695 	4925 	0.058268
36.31 	0.061080 	4928 	0.060604
36.35 	0.057415 	4929 	0.056702
36.39 	0.055070 	4921 	0.054118
36.43 	0.057833 	4928 	0.056644
36.47 	0.053485 	4936 	0.052654
36.51 	0.047638 	4933 	0.046926
36.55 	0.058453 	4927 	0.058216
36.59 	0.057502 	4939 	0.056671
36.63 	0.054958 	4931 	0.054364
36.67 	0.054970 	4930 	0.054138
36.71 	0.059541 	4921 	0.058450
36.75 	0.059264 	4944 	0.058671
36.79 	0.060557 	4921 	0.059247
36.83 	0.055748 	4915 	0.054794
36.87 	0.059668 	4944 	0.058602
36.91 	0.054645 	4941 	0.054171
36.95 	0.056152 	4933 	0.055321
36.99 	0.054306 	4935 	0.053594
37.03 	0.057067 	4924 	0.055759
37.07 	0.057751 	4935 	0.057276
37.11 	0.057143 	4935 	0.056431
37.15 	0.058260 	4909 	0.057286
37.19 	0.057665 	4925 	0.056832
37.23 	0.053274 	4918 	0.051963
37.27 	0.059665 	4894 	0.058707
37.31 	0.061398 	4935 	0.060192
37.35 	0.060956 	4938 	0.060125
37.39 	0.055364 	4931 	0.054869
37.43 	0.057380 	4932 	0.056074
37.47 	0.058430 	4929 	0.057360
37.51 	0.052706 	4933 	0.051400
37.55 	0.056187 	4930 	0.055117
37.59 	0.051068 	4915 	0.050949
37.63 	0.052043 	4919 	0.051686
37.67 	0.056892 	4904 	0.056176
37.71 	0.059241 	4929 	0.058409
37.75 	0.056883 	4940 	0.056171
37.79 	0.057606 	4930 	0.056518
37.83 	0.058130 	4920 	0.057297
37.87 	0.052642 	4939 	0.051931
37.91 	0.060243 	4930 	0.058936
37.95 	0.054054 	4921 	0.053102
37.99 	0.056393 	4912 	0.055319
38.03 	0.058464 	4909 	0.057629
38.07 	0.056020 	4909 	0.055304
38.11 	0.057143 	4935 	0.055600
38.15 	0.054494 	4918 	0.053898
38.19 	0.053347 	4930 	0.052277
38.23 	0.053665 	4938 	0.053072
38.27 	0.057809 	4930 	0.056383
38.31 	0.059468 	4927 	0.058141
38.35 	0.060065 	4928 	0.059114
38.39 	0.063353 	4909 	0.062279
38.43 	0.065907 	4916 	0.064477
38.47 	0.061137 	4907 	0.060063
38.51 	0.071168 	4932 	0.070099
38.55 	0.070705 	4936 	0.069281
38.59 	0.067425 	4924 	0.066473
38.63 	0.075751 	4924 	0.074324
38.67 	0.072109 	4937 	0.070447
38.71 	0.068846 	4924 	0.067637
38.75 	0.070022 	4927 	0.068358
38.79 	0.071950 	4934 	0.071000
38.83 	0.063631 	4919 	0.062559
38.87 	0.062105 	4911 	0.060793
38.91 	0.058536 	4903 	0.057341
38.95 	0.058967 	4918 	0.058014
38.99 	0.059955 	4937 	0.058393
39.03 	0.048845 	4934 	0.048132
39.07 	0.050772 	4924 	0.050653
39.11 	0.053133 	4931 	0.052302
39.15 	0.045371 	4915 	0.045014
39.19 	0.047387 	4917 	0.047148
39.23 	0.047919 	4925 	0.047443
39.27 	0.045010 	4910 	0.044772
39.31 	0.046683 	4884 	0.046083
39.35 	0.050051 	4935 	0.049082
39.39 	0.046865 	4929 	0.046271
39.43 	0.045814 	4933 	0.045101
39.47 	0.048141 	4923 	0.047051
39.51 	0.043258 	4924 	0.042782
39.55 	0.046148 	4919 	0.044957
39.59 	0.043363 	4912 	0.043125
39.63 	0.048151 	4922 	0.047437
39.67 	0.044372 	4913 	0.044014
39.71 	0.045965 	4895 	0.045247
39.75 	0.046672 	4928 	0.045721
39.79 	0.040195 	4926 	0.039600
39.83 	0.039116 	4934 	0.038879
39.87 	0.041421 	4925 	0.040827
39.91 	0.046119 	4922 	0.045881
39.95 	0.045168 	4915 	0.044572
39.99 	0.045012 	4932 	0.044418
40.03 	0.046672 	4928 	0.046315
40.07 	0.047938 	4923 	0.047700
40.11 	0.042514 	4916 	0.042395
40.15 	0.041115 	4913 	0.040519
40.19 	0.048489 	4929 	0.048132
40.23 	0.040349 	4932 	0.039992
40.27 	0.045777 	4937 	0.045302
40.31 	0.046568 	4939 	0.046331
40.35 	0.040862 	4919 	0.040624
40.39 	0.038329 	4931 	0.037973
40.43 	0.041447 	4922 	0.040971
40.47 	0.041480 	4918 	0.040647
40.51 	0.043275 	4922 	0.042680
40.55 	0.041769 	4908 	0.041052
40.59 	0.039903 	4937 	0.039665
40.63 	0.038337 	4930 	0.037861
40.67 	0.040957 	4932 	0.040363
40.71 	0.042174 	4932 	0.041698
40.75 	0.045021 	4931 	0.044427
40.79 	0.041836 	4924 	0.041241
40.83 	0.047281 	4928 	0.046805
40.87 	0.042614 	4928 	0.041782
40.91 	0.043469 	4923 	0.043112
40.95 	0.040505 	4913 	0.039531
40.99 	0.038383 	4924 	0.038145
41.03 	0.039959 	4905 	0.039362
41.07 	0.037525 	4930 	0.036793
41.11 	0.042351 	4935 	0.041757
41.15 	0.038656 	4941 	0.038300
41.19 	0.036714 	4930 	0.036476
41.23 	0.039279 	4939 	0.039161
41.27 	0.045630 	4931 	0.044917
41.31 	0.039530 	4933 	0.038817
41.35 	0.038680 	4938 	0.038561
41.39 	0.042368 	4933 	0.041893
41.43 	0.052952 	4929 	0.052001
41.47 	0.041210 	4926 	0.040853
41.51 	0.044130 	4940 	0.042924
41.55 	0.041743 	4935 	0.041030
41.59 	0.044192 	4933 	0.043717
41.63 	0.038275 	4938 	0.037800
41.67 	0.042105 	4940 	0.041631
41.71 	0.039724 	4934 	0.039487
41.75 	0.041996 	4929 	0.041164
41.79 	0.043285 	4944 	0.042811
41.83 	0.041802 	4928 	0.041445
41.87 	0.037082 	4935 	0.036607
41.91 	0.038898 	4936 	0.038779
41.95 	0.039343 	4931 	0.038749
41.99 	0.043017 	4905 	0.042778
42.03 	0.042114 	4939 	0.041521
42.07 	0.040105 	4937 	0.040105
42.11 	0.037412 	4945 	0.036464
42.15 	0.043540 	4938 	0.043065
42.19 	0.038305 	4908 	0.037589
42.23 	0.035364 	4892 	0.035364
42.27 	0.039803 	4874 	0.039202
42.31 	0.029042 	4855 	0.028922
42.35 	0.035345 	4838 	0.035103
42.39 	0.038718 	4804 	0.038474
42.43 	0.038397 	4792 	0.038275
42.47 	0.037146 	4765 	0.036777
42.51 	0.038372 	4743 	0.038002
42.55 	0.034410 	4708 	0.034016
42.59 	0.039755 	4729 	0.039383
42.63 	0.038437 	4709 	0.038437
42.67 	0.039496 	4684 	0.039371
42.71 	0.034098 	4663 	0.033847
42.75 	0.040502 	4617 	0.039995
42.79 	0.037102 	4582 	0.036590
42.83 	0.041667 	4536 	0.041279
42.87 	0.041565 	4499 	0.041044
42.91 	0.041068 	4456 	0.040805
42.95 	0.038723 	4416 	0.038060
42.99 	0.037400 	4385 	0.037133
43.03 	0.033464 	4333 	0.033329
43.07 	0.034916 	4296 	0.034507
43.11 	0.039013 	4255 	0.038738
43.15 	0.033761 	4206 	0.033343
43.19 	0.037911 	4194 	0.037632
43.23 	0.041647 	4154 	0.041059
43.27 	0.039464 	4105 	0.039036
43.31 	0.040941 	4079 	0.039913
43.35 	0.039931 	4032 	0.039495
43.39 	0.040230 	4002 	0.039937
43.43 	0.038889 	3960 	0.038445
43.47 	0.038256 	3921 	0.037509
43.51 	0.033531 	3877 	0.033380
43.55 	0.032726 	2964 	0.032528
43.59 	0.034364 	1746 	0.033693
43.63 	0.036963 	1001 	0.036378
43.67 	0.047809 	502 	0.046642
43.71 	0.025105 	239 	0.025105
43.75 	0.000000 	16 	0.000000

File: 25SC_s1_0019.002.dat
#F C:\frames\spec\25SC_s1_0019.002
#C title =s:19 frm:2 25SC_s1
#C wavelength =0.15406

#S 1  fr_average C:\frames\spec\25SC_s1_0019.002 C:\win32app\speccom\mask.axs chi 0 180 0 360 0.02
#C 2 theta =0.000000 to 180 deg
#C   q   =0.000000 to 81.568 nm^-1
#C  chi  =0.000000 to 360 deg
#C collumns:
#C  1 position (2theta or chi in degrees)
#C  2 average intensity (sum of all counts in the region divided with number of pixels)
#C  3 Number of pixels in region)
#C  4 error (sum of sqrt(intensity) for all pixels divided by number)
#N 4
#L TTh  Int  N_pix  Err
32.99 	0.114754 	61 	0.105151
33.03 	0.061826 	1391 	0.061826
33.07 	0.058049 	2050 	0.058049
33.11 	0.067468 	2579 	0.066332
33.15 	0.057352 	2999 	0.056571
33.19 	0.063136 	3342 	0.062084
33.23 	0.062447 	3523 	0.060784
33.27 	0.062810 	3630 	0.061842
33.31 	0.055738 	3660 	0.055098
33.35 	0.062805 	3694 	0.060902
33.39 	0.057388 	3729 	0.056760
33.43 	0.058229 	3761 	0.057295
33.47 	0.064771 	3798 	0.063203
33.51 	0.056094 	3815 	0.055327
33.55 	0.051522 	3843 	0.051065
33.59 	0.058763 	3880 	0.057379
33.63 	0.056647 	3919 	0.056348
33.67 	0.060698 	3954 	0.059957
33.71 	0.060881 	3975 	0.059702
33.75 	0.058765 	3999 	0.057422
33.79 	0.055184 	4041 	0.054605
33.83 	0.055556 	4050 	0.054977
33.87 	0.055461 	4111 	0.054321
33.91 	0.058327 	4149 	0.056915
33.95 	0.056924 	4181 	0.056364
33.99 	0.056190 	4200 	0.055633
34.03 	0.062677 	4244 	0.061550
34.07 	0.059044 	4268 	0.057809
34.11 	0.059972 	4302 	0.058747
34.15 	0.055645 	4331 	0.055240
34.19 	0.059835 	4362 	0.058358
34.23 	0.061006 	4393 	0.060073
34.27 	0.060380 	4422 	0.058504
34.31 	0.054060 	4458 	0.053009
34.35 	0.061329 	4484 	0.059762
34.39 	0.057086 	4502 	0.056826
34.43 	0.060806 	4539 	0.059107
34.47 	0.056402 	4592 	0.056147
34.51 	0.060356 	4606 	0.059211
34.55 	0.058152 	4643 	0.057017
34.59 	0.060107 	4675 	0.058708
34.63 	0.058599 	4710 	0.057459
34.67 	0.059692 	4741 	0.058704
34.71 	0.060428 	4766 	0.059445
34.75 	0.051581 	4808 	0.050606
34.79 	0.059287 	4824 	0.058558
34.83 	0.057384 	4862 	0.056299
34.87 	0.059367 	4868 	0.058044
34.91 	0.053871 	4882 	0.052791
34.95 	0.055215 	4890 	0.054256
34.99 	0.053911 	4897 	0.053073
35.03 	0.054218 	4943 	0.053270
35.07 	0.057490 	4940 	0.056304
35.11 	0.062058 	4947 	0.060992
35.15 	0.062184 	4937 	0.061353
35.19 	0.052408 	4942 	0.051223
35.23 	0.062083 	4945 	0.060898
35.27 	0.057801 	4948 	0.056854
35.31 	0.058180 	4933 	0.056873
35.35 	0.058276 	4942 	0.057091
35.39 	0.053387 	4945 	0.051847
35.43 	0.057977 	4933 	0.057027
35.47 	0.052322 	4931 	0.051609
35.51 	0.052781 	4926 	0.051691
35.55 	0.059858 	4945 	0.059266
35.59 	0.058847 	4945 	0.057663
35.63 	0.057253 	4943 	0.056897
35.67 	0.061918 	4942 	0.059647
35.71 	0.055499 	4937 	0.054511
35.75 	0.060434 	4931 	0.059365
35.79 	0.060827 	4932 	0.059521
35.83 	0.059038 	4946 	0.058090
35.87 	0.053423 	4923 	0.052709
35.91 	0.062716 	4927 	0.061646
35.95 	0.061826 	4917 	0.060377
35.99 	0.058919 	4939 	0.057970
36.03 	0.058264 	4943 	0.057553
36.07 	0.052845 	4939 	0.052014
36.11 	0.053966 	4929 	0.053234
36.15 	0.061753 	4939 	0.060805
36.19 	0.048583 	4940 	0.047990
36.23 	0.058359 	4935 	0.057152
36.27 	0.059898 	4925 	0.058828
36.31 	0.065544 	4928 	0.063880
36.35 	0.058227 	4929 	0.057038
36.39 	0.066247 	4921 	0.064799
36.43 	0.054992 	4928 	0.054140
36.47 	0.058752 	4936 	0.057447
36.51 	0.056963 	4933 	0.055420
36.55 	0.061498 	4927 	0.060666
36.59 	0.052237 	4939 	0.051763
36.63 	0.057392 	4931 	0.056679
36.67 	0.056187 	4930 	0.055236
36.71 	0.061979 	4921 	0.060432
36.75 	0.055623 	4944 	0.054083
36.79 	0.054664 	4921 	0.053711
36.83 	0.059410 	4915 	0.058337
36.87 	0.057646 	4944 	0.057271
36.91 	0.053633 	4941 	0.052447
36.95 	0.046219 	4933 	0.045626
36.99 	0.057143 	4935 	0.056549
37.03 	0.057271 	4924 	0.056319
37.07 	0.053090 	4935 	0.052259
37.11 	0.050861 	4935 	0.050149
37.15 	0.055612 	4909 	0.054658
37.19 	0.054010 	4925 	0.053772
37.23 	0.055104 	4918 	0.054389
37.27 	0.055578 	4894 	0.054621
37.31 	0.056535 	4935 	0.055111
37.35 	0.049615 	4938 	0.048903
37.39 	0.056986 	4931 	0.055561
37.43 	0.054339 	4932 	0.053626
37.47 	0.055184 	4929 	0.053876
37.51 	0.049868 	4933 	0.049156
37.55 	0.055781 	4930 	0.054830
37.59 	0.049644 	4915 	0.048929
37.63 	0.053060 	4919 	0.052345
37.67 	0.058728 	4904 	0.057891
37.71 	0.049706 	4929 	0.048993
37.75 	0.051619 	4940 	0.050789
37.79 	0.049290 	4930 	0.048577
37.83 	0.050203 	4920 	0.049846
37.87 	0.052440 	4939 	0.051491
37.91 	0.047059 	4930 	0.046346
37.95 	0.054664 	4921 	0.054307
37.99 	0.056393 	4912 	0.055915
38.03 	0.055001 	4909 	0.054643
38.07 	0.051945 	4909 	0.050871
38.11 	0.056535 	4935 	0.055823
38.15 	0.052460 	4918 	0.051269
38.19 	0.058012 	4930 	0.057299
38.23 	0.054475 	4938 	0.053388
38.27 	0.050710 	4930 	0.050235
38.31 	0.054800 	4927 	0.054087
38.35 	0.056209 	4928 	0.055377
38.39 	0.057853 	4909 	0.057018
38.43 	0.062856 	4916 	0.061545
38.47 	0.055023 	4907 	0.053949
38.51 	0.053933 	4932 	0.052746
38.55 	0.064425 	4936 	0.062644
38.59 	0.059504 	4924 	0.058434
38.63 	0.067425 	4924 	0.065859
38.67 	0.059753 	4937 	0.059041
38.71 	0.055849 	4924 	0.055235
38.75 	0.062919 	4927 	0.062086
38.79 	0.054722 	4934 	0.053891
38.83 	0.055906 	4919 	0.054596
38.87 	0.053757 	4911 	0.052445
38.91 	0.055884 	4903 	0.054809
38.95 	0.052664 	4918 	0.052068
38.99 	0.048410 	4937 	0.047817
39.03 	0.046615 	4934 	0.046259
39.07 	0.045491 	4924 	0.044421
39.11 	0.055567 	4931 	0.054379
39.15 	0.051475 	4915 	0.050402
39.19 	0.051861 	4917 	0.051027
39.23 	0.047310 	4925 	0.045744
39.27 	0.044399 	4910 	0.044041
39.31 	0.045455 	4884 	0.044975
39.35 	0.046809 	4935 	0.046334
39.39 	0.044837 	4929 	0.044599
39.43 	0.049260 	4933 	0.048647
39.47 	0.046516 	4923 	0.045921
39.51 	0.048132 	4924 	0.047537
39.55 	0.045741 	4919 	0.044907
39.59 	0.042142 	4912 	0.041307
39.63 	0.040431 	4922 	0.039955
39.67 	0.041726 	4913 	0.041130
39.71 	0.040858 	4895 	0.040260
39.75 	0.049513 	4928 	0.048899
39.79 	0.046285 	4926 	0.045809
39.83 	0.051885 	4934 	0.051291
39.87 	0.043655 	4925 	0.043179
39.91 	0.048761 	4922 	0.047928
39.95 	0.046999 	4915 	0.046403
39.99 	0.043187 	4932 	0.042950
40.03 	0.042411 	4928 	0.041698
40.07 	0.037172 	4923 	0.036578
40.11 	0.044142 	4916 	0.043307
40.15 	0.043151 	4913 	0.042197
40.19 	0.045040 	4929 	0.044564
40.23 	0.044201 	4932 	0.043013
40.27 	0.044764 	4937 	0.044171
40.31 	0.041709 	4939 	0.040879
40.35 	0.039642 	4919 	0.039047
40.39 	0.045832 	4931 	0.045239
40.43 	0.045307 	4922 	0.044811
40.47 	0.038634 	4918 	0.038395
40.51 	0.047338 	4922 	0.046505
40.55 	0.043195 	4908 	0.042837
40.59 	0.045372 	4937 	0.044778
40.63 	0.046045 	4930 	0.045332
40.67 	0.041565 	4932 	0.040714
40.71 	0.045823 	4932 	0.045229
40.75 	0.043196 	4931 	0.042840
40.79 	0.044882 	4924 	0.044525
40.83 	0.040787 	4928 	0.040193
40.87 	0.040990 	4928 	0.040376
40.91 	0.045907 	4923 	0.045669
40.95 	0.043151 	4913 	0.042912
40.99 	0.046710 	4924 	0.046591
41.03 	0.041182 	4905 	0.040824
41.07 	0.045030 	4930 	0.044318
41.11 	0.045390 	4935 	0.044915
41.15 	0.044525 	4941 	0.043676
41.19 	0.044828 	4930 	0.044352
41.23 	0.039482 	4939 	0.038889
41.27 	0.044616 	4931 	0.044141
41.31 	0.039732 	4933 	0.039376
41.35 	0.041515 	4938 	0.040803
41.39 	0.041962 	4933 	0.041725
41.43 	0.042808 	4929 	0.041857
41.47 	0.040601 	4926 	0.039887
41.51 	0.041700 	4940 	0.040989
41.55 	0.042148 	4935 	0.041436
41.59 	0.043584 	4933 	0.042872
41.63 	0.043742 	4938 	0.043268
41.67 	0.040688 	4940 	0.040095
41.71 	0.039522 	4934 	0.039047
41.75 	0.043214 	4929 	0.042719
41.79 	0.042273 	4944 	0.041326
41.83 	0.035106 	4928 	0.034749
41.87 	0.043972 	4935 	0.043359
41.91 	0.043355 	4936 	0.042999
41.95 	0.043805 	4931 	0.043329
41.99 	0.044444 	4905 	0.044325
42.03 	0.040696 	4939 	0.040578
42.07 	0.040105 	4937 	0.039275
42.11 	0.038423 	4945 	0.038067
42.15 	0.042122 	4938 	0.041411
42.19 	0.041157 	4908 	0.040422
42.23 	0.042110 	4892 	0.041271
42.27 	0.040008 	4874 	0.039287
42.31 	0.035633 	4855 	0.035030
42.35 	0.039479 	4838 	0.039116
42.39 	0.035803 	4804 	0.035194
42.43 	0.036102 	4792 	0.035735
42.47 	0.034208 	4765 	0.033716
42.51 	0.042167 	4743 	0.041550
42.55 	0.039932 	4708 	0.039932
42.59 	0.041023 	4729 	0.040156
42.63 	0.038437 	4709 	0.037566
42.67 	0.040991 	4684 	0.040740
42.71 	0.039888 	4663 	0.039386
42.75 	0.034871 	4617 	0.034490
42.79 	0.039502 	4582 	0.039375
42.83 	0.044092 	4536 	0.043059
42.87 	0.040453 	4499 	0.039802
42.91 	0.038600 	4456 	0.038205
42.95 	0.043931 	4416 	0.043666
42.99 	0.043558 	4385 	0.043290
43.03 	0.036003 	4333 	0.035327
43.07 	0.042598 	4296 	0.042052
43.11 	0.036898 	4255 	0.036898
43.15 	0.039943 	4206 	0.039247
43.19 	0.043395 	4194 	0.043395
43.23 	0.037073 	4154 	0.036791
43.27 	0.039464 	4105 	0.039036
43.31 	0.037754 	4079 	0.037467
43.35 	0.038194 	4032 	0.037468
43.39 	0.037231 	4002 	0.036792
43.43 	0.039394 	3960 	0.038950
43.47 	0.042336 	3921 	0.041739
43.51 	0.042817 	3877 	0.042514
43.55 	0.040823 	2964 	0.040230
43.59 	0.034364 	1746 	0.034364
43.63 	0.034965 	1001 	0.034380
43.67 	0.053785 	502 	0.052618
43.71 	0.062762 	239 	0.062762
43.75 	0.000000 	16 	0.000000