Folder: Bessy-II-KMC-II-insitu-sin2psi/Example_Data (part 52)

File: 25SC_s1_0021.001.dat
#F C:\frames\spec\25SC_s1_0021.001
#C title =s:21 frm:1 25SC_s1
#C wavelength =0.15406

#S 1  fr_average C:\frames\spec\25SC_s1_0021.001 C:\win32app\speccom\mask.axs chi 0 180 0 360 0.02
#C 2 theta =0.000000 to 180 deg
#C   q   =0.000000 to 81.568 nm^-1
#C  chi  =0.000000 to 360 deg
#C collumns:
#C  1 position (2theta or chi in degrees)
#C  2 average intensity (sum of all counts in the region divided with number of pixels)
#C  3 Number of pixels in region)
#C  4 error (sum of sqrt(intensity) for all pixels divided by number)
#N 4
#L TTh  Int  N_pix  Err
32.99 	0.081967 	61 	0.081967
33.03 	0.065421 	1391 	0.063315
33.07 	0.052683 	2050 	0.051254
33.11 	0.051958 	2579 	0.051277
33.15 	0.059020 	2999 	0.058238
33.19 	0.055655 	3342 	0.054604
33.23 	0.056202 	3523 	0.054179
33.27 	0.060882 	3630 	0.059106
33.31 	0.060929 	3660 	0.059489
33.35 	0.061992 	3694 	0.060882
33.39 	0.059802 	3729 	0.059173
33.43 	0.068333 	3761 	0.067710
33.47 	0.060821 	3798 	0.060050
33.51 	0.060813 	3815 	0.059277
33.55 	0.053864 	3843 	0.053254
33.59 	0.063402 	3880 	0.062798
33.63 	0.062006 	3919 	0.061258
33.67 	0.061457 	3954 	0.060420
33.71 	0.060126 	3975 	0.058652
33.75 	0.050263 	3999 	0.049823
33.79 	0.060381 	4041 	0.059076
33.83 	0.058025 	4050 	0.057157
33.87 	0.064218 	4111 	0.062793
33.91 	0.057845 	4149 	0.056857
33.95 	0.059316 	4181 	0.058335
33.99 	0.061190 	4200 	0.059633
34.03 	0.053959 	4244 	0.053268
34.07 	0.064667 	4268 	0.063569
34.11 	0.056253 	4302 	0.055027
34.15 	0.060494 	4331 	0.059547
34.19 	0.061210 	4362 	0.060539
34.23 	0.059640 	4393 	0.058018
34.27 	0.059701 	4422 	0.058355
34.31 	0.056752 	4458 	0.055964
34.35 	0.062444 	4484 	0.061138
34.39 	0.047979 	4502 	0.047198
34.43 	0.056841 	4539 	0.055937
34.47 	0.052700 	4592 	0.051425
34.51 	0.057751 	4606 	0.056077
34.55 	0.060737 	4643 	0.059475
34.59 	0.054118 	4675 	0.052593
34.63 	0.054565 	4710 	0.053694
34.67 	0.053575 	4741 	0.052957
34.71 	0.053714 	4766 	0.053099
34.75 	0.052829 	4808 	0.052219
34.79 	0.056385 	4824 	0.055413
34.83 	0.051625 	4862 	0.050762
34.87 	0.057518 	4868 	0.056796
34.91 	0.056329 	4882 	0.055249
34.95 	0.051329 	4890 	0.050850
34.99 	0.056974 	4897 	0.055858
35.03 	0.055837 	4943 	0.054414
35.07 	0.060121 	4940 	0.058580
35.11 	0.057813 	4947 	0.056866
35.15 	0.060361 	4937 	0.059411
35.19 	0.061716 	4942 	0.060175
35.23 	0.062690 	4945 	0.061268
35.27 	0.056791 	4948 	0.056317
35.31 	0.062234 	4933 	0.061165
35.35 	0.062323 	4942 	0.061256
35.39 	0.055612 	4945 	0.055019
35.43 	0.053314 	4933 	0.052008
35.47 	0.061448 	4931 	0.060260
35.51 	0.060901 	4926 	0.059474
35.55 	0.053589 	4945 	0.052879
35.59 	0.063296 	4945 	0.062092
35.63 	0.057860 	4943 	0.056556
35.67 	0.059288 	4942 	0.057984
35.71 	0.059550 	4937 	0.058601
35.75 	0.058406 	4931 	0.057931
35.79 	0.057786 	4932 	0.057073
35.83 	0.051355 	4946 	0.050762
35.87 	0.056267 	4923 	0.054958
35.91 	0.055409 	4927 	0.054577
35.95 	0.058979 	4917 	0.058622
35.99 	0.052642 	4939 	0.052168
36.03 	0.056039 	4943 	0.054498
36.07 	0.064588 	4939 	0.063046
36.11 	0.057212 	4929 	0.056618
36.15 	0.057097 	4939 	0.055911
36.19 	0.059919 	4940 	0.058595
36.23 	0.063222 	4935 	0.061560
36.27 	0.057462 	4925 	0.056729
36.31 	0.056818 	4928 	0.055392
36.35 	0.059444 	4929 	0.058256
36.39 	0.060150 	4921 	0.058484
36.43 	0.052354 	4928 	0.051165
36.47 	0.058752 	4936 	0.057803
36.51 	0.052301 	4933 	0.051826
36.55 	0.062716 	4927 	0.061883
36.59 	0.053047 	4939 	0.052336
36.63 	0.054350 	4931 	0.053004
36.67 	0.059026 	4930 	0.058432
36.71 	0.060557 	4921 	0.059485
36.75 	0.061893 	4944 	0.060234
36.79 	0.062182 	4921 	0.061330
36.83 	0.053306 	4915 	0.052591
36.87 	0.056028 	4944 	0.055435
36.91 	0.051609 	4941 	0.051490
36.95 	0.056963 	4933 	0.055875
36.99 	0.049037 	4935 	0.047969
37.03 	0.056661 	4924 	0.055710
37.07 	0.056940 	4935 	0.055872
37.11 	0.054103 	4935 	0.053272
37.15 	0.055408 	4909 	0.054454
37.19 	0.055228 	4925 	0.054753
37.23 	0.058764 	4918 	0.058168
37.27 	0.053535 	4894 	0.053176
37.31 	0.061803 	4935 	0.060854
37.35 	0.063589 	4938 	0.061908
37.39 	0.055567 	4931 	0.054854
37.43 	0.060827 	4932 	0.060352
37.47 	0.057821 	4929 	0.056633
37.51 	0.059193 	4933 	0.058481
37.55 	0.059026 	4930 	0.057838
37.59 	0.059613 	4915 	0.058541
37.63 	0.053263 	4919 	0.052548
37.67 	0.054445 	4904 	0.053968
37.71 	0.049706 	4929 	0.049349
37.75 	0.058300 	4940 	0.057825
37.79 	0.048276 	4930 	0.047801
37.83 	0.056707 	4920 	0.055874
37.87 	0.053857 	4939 	0.052908
37.91 	0.052130 	4930 	0.050942
37.95 	0.051616 	4921 	0.051258
37.99 	0.060261 	4912 	0.059187
38.03 	0.055001 	4909 	0.054146
38.07 	0.053779 	4909 	0.052585
38.11 	0.054914 	4935 	0.053727
38.15 	0.058764 	4918 	0.057811
38.19 	0.053955 	4930 	0.053480
38.23 	0.053665 	4938 	0.053072
38.27 	0.060852 	4930 	0.059783
38.31 	0.062513 	4927 	0.061086
38.35 	0.057427 	4928 	0.056357
38.39 	0.062742 	4909 	0.061768
38.43 	0.066314 	4916 	0.064765
38.47 	0.066639 	4907 	0.065684
38.51 	0.071776 	4932 	0.070588
38.55 	0.072326 	4936 	0.071020
38.59 	0.072908 	4924 	0.072194
38.63 	0.079204 	4924 	0.077776
38.67 	0.074539 	4937 	0.072048
38.71 	0.070877 	4924 	0.069549
38.75 	0.065151 	4927 	0.063843
38.79 	0.066883 	4934 	0.065814
38.83 	0.059972 	4919 	0.059495
38.87 	0.060273 	4911 	0.058961
38.91 	0.058536 	4903 	0.057102
38.95 	0.058967 	4918 	0.057895
38.99 	0.055904 	4937 	0.054955
39.03 	0.046615 	4934 	0.046140
39.07 	0.053818 	4924 	0.053085
39.11 	0.047049 	4931 	0.047049
39.15 	0.047406 	4915 	0.046452
39.19 	0.050031 	4917 	0.049673
39.23 	0.047107 	4925 	0.046631
39.27 	0.048473 	4910 	0.047399
39.31 	0.048321 	4884 	0.048081
39.35 	0.048632 	4935 	0.047801
39.39 	0.039359 	4929 	0.039240
39.43 	0.044395 	4933 	0.044157
39.47 	0.046313 	4923 	0.045342
39.51 	0.041430 	4924 	0.040954
39.55 	0.044115 	4919 	0.043757
39.59 	0.044788 	4912 	0.044192
39.63 	0.048761 	4922 	0.048285
39.67 	0.044169 	4913 	0.044049
39.71 	0.048825 	4895 	0.047629
39.75 	0.045049 	4928 	0.044454
39.79 	0.047300 	4926 	0.046705
39.83 	0.049858 	4934 	0.049027
39.87 	0.042234 	4925 	0.041639
39.91 	0.045307 	4922 	0.044355
39.95 	0.042319 	4915 	0.041724
39.99 	0.043390 	4932 	0.042915
40.03 	0.044237 	4928 	0.043999
40.07 	0.049157 	4923 	0.048324
40.11 	0.049024 	4916 	0.048904
40.15 	0.044372 	4913 	0.043895
40.19 	0.040576 	4929 	0.039982
40.23 	0.042782 	4932 	0.041832
40.27 	0.044764 	4937 	0.044408
40.31 	0.041101 	4939 	0.040864
40.35 	0.042488 	4919 	0.042131
40.39 	0.042182 	4931 	0.041826
40.43 	0.041447 	4922 	0.040851
40.47 	0.044124 	4918 	0.043766
40.51 	0.038602 	4922 	0.038245
40.55 	0.041157 	4908 	0.040680
40.59 	0.039498 	4937 	0.039023
40.63 	0.048276 	4930 	0.047325
40.67 	0.044201 	4932 	0.043607
40.71 	0.041971 	4932 	0.041496
40.75 	0.040763 	4931 	0.040406
40.79 	0.043258 	4924 	0.043139
40.83 	0.038352 	4928 	0.038115
40.87 	0.040584 	4928 	0.040109
40.91 	0.044688 	4923 	0.044093
40.95 	0.044372 	4913 	0.043637
40.99 	0.038587 	4924 	0.038111
41.03 	0.035270 	4905 	0.035151
41.07 	0.046450 	4930 	0.045619
41.11 	0.041135 	4935 	0.040185
41.15 	0.041692 	4941 	0.041099
41.19 	0.043813 	4930 	0.043338
41.23 	0.033813 	4939 	0.033575
41.27 	0.040965 	4931 	0.040728
41.31 	0.039124 	4933 	0.038649
41.35 	0.034832 	4938 	0.034595
41.39 	0.041760 	4933 	0.041522
41.43 	0.040779 	4929 	0.039928
41.47 	0.036744 	4926 	0.036387
41.51 	0.042510 	4940 	0.042154
41.55 	0.041540 	4935 	0.041303
41.59 	0.040949 	4933 	0.040474
41.63 	0.039490 	4938 	0.038659
41.67 	0.041903 	4940 	0.041191
41.71 	0.040130 	4934 	0.039892
41.75 	0.041591 	4929 	0.041115
41.79 	0.040858 	4944 	0.040265
41.83 	0.040990 	4928 	0.040753
41.87 	0.037487 	4935 	0.037131
41.91 	0.041937 	4936 	0.041818
41.95 	0.038735 	4931 	0.038497
41.99 	0.038940 	4905 	0.038223
42.03 	0.041101 	4939 	0.040390
42.07 	0.041321 	4937 	0.041202
42.11 	0.040849 	4945 	0.040494
42.15 	0.039085 	4938 	0.038116
42.19 	0.037897 	4908 	0.037659
42.23 	0.031276 	4892 	0.030797
42.27 	0.043701 	4874 	0.043221
42.31 	0.040371 	4855 	0.039888
42.35 	0.041133 	4838 	0.040769
42.39 	0.042256 	4804 	0.041891
42.43 	0.041528 	4792 	0.041161
42.47 	0.038195 	4765 	0.037580
42.51 	0.039005 	4743 	0.038758
42.55 	0.041844 	4708 	0.041201
42.59 	0.036794 	4729 	0.036547
42.63 	0.039924 	4709 	0.039675
42.67 	0.040991 	4684 	0.040740
42.71 	0.037315 	4663 	0.037315
42.75 	0.034871 	4617 	0.034617
42.79 	0.042558 	4582 	0.042174
42.83 	0.041005 	4536 	0.040489
42.87 	0.036453 	4499 	0.035932
42.91 	0.038824 	4456 	0.038430
42.95 	0.037138 	4416 	0.036740
42.99 	0.035348 	4385 	0.035214
43.03 	0.042465 	4333 	0.041789
43.07 	0.043296 	4296 	0.042456
43.11 	0.035488 	4255 	0.034799
43.15 	0.037090 	4206 	0.036811
43.19 	0.032904 	4194 	0.032485
43.23 	0.037073 	4154 	0.036791
43.27 	0.039951 	4105 	0.039214
43.31 	0.039961 	4079 	0.039961
43.35 	0.038690 	4032 	0.038545
43.39 	0.038981 	4002 	0.038688
43.43 	0.037374 	3960 	0.036634
43.47 	0.035195 	3921 	0.035195
43.51 	0.035595 	3877 	0.035141
43.55 	0.037787 	2964 	0.037589
43.59 	0.038946 	1746 	0.038275
43.63 	0.029970 	1001 	0.029970
43.67 	0.027888 	502 	0.027888
43.71 	0.041841 	239 	0.041841
43.75 	0.000000 	16 	0.000000

File: 25SC_s1_0021.002.dat
#F C:\frames\spec\25SC_s1_0021.002
#C title =s:21 frm:2 25SC_s1
#C wavelength =0.15406

#S 1  fr_average C:\frames\spec\25SC_s1_0021.002 C:\win32app\speccom\mask.axs chi 0 180 0 360 0.02
#C 2 theta =0.000000 to 180 deg
#C   q   =0.000000 to 81.568 nm^-1
#C  chi  =0.000000 to 360 deg
#C collumns:
#C  1 position (2theta or chi in degrees)
#C  2 average intensity (sum of all counts in the region divided with number of pixels)
#C  3 Number of pixels in region)
#C  4 error (sum of sqrt(intensity) for all pixels divided by number)
#N 4
#L TTh  Int  N_pix  Err
32.99 	0.081967 	61 	0.081967
33.03 	0.058231 	1391 	0.056968
33.07 	0.063415 	2050 	0.061700
33.11 	0.056223 	2579 	0.055542
33.15 	0.061020 	2999 	0.060239
33.19 	0.061939 	3342 	0.060887
33.23 	0.062163 	3523 	0.060833
33.27 	0.059504 	3630 	0.058859
33.31 	0.058743 	3660 	0.058263
33.35 	0.057932 	3694 	0.057297
33.39 	0.055243 	3729 	0.053986
33.43 	0.053443 	3761 	0.052509
33.47 	0.060558 	3798 	0.058862
33.51 	0.059502 	3815 	0.058734
33.55 	0.066354 	3843 	0.064983
33.59 	0.058763 	3880 	0.057404
33.63 	0.059709 	3919 	0.058513
33.67 	0.059686 	3954 	0.058353
33.71 	0.059874 	3975 	0.058401
33.75 	0.065766 	3999 	0.065034
33.79 	0.060381 	4041 	0.059076
33.83 	0.070123 	4050 	0.067954
33.87 	0.058866 	4111 	0.057727
33.91 	0.060014 	4149 	0.059309
33.95 	0.062425 	4181 	0.061024
33.99 	0.055000 	4200 	0.054140
34.03 	0.058435 	4244 	0.057745
34.07 	0.057638 	4268 	0.056677
34.11 	0.056950 	4302 	0.055452
34.15 	0.052644 	4331 	0.051967
34.19 	0.061440 	4362 	0.059694
34.23 	0.054405 	4393 	0.053183
34.27 	0.058345 	4422 	0.057285
34.31 	0.067519 	4458 	0.066599
34.35 	0.064897 	4484 	0.063199
34.39 	0.061306 	4502 	0.060525
34.43 	0.052434 	4539 	0.051531
34.47 	0.053136 	4592 	0.052243
34.51 	0.052757 	4606 	0.051973
34.55 	0.062460 	4643 	0.061703
34.59 	0.061818 	4675 	0.060565
34.63 	0.054565 	4710 	0.053570
34.67 	0.058216 	4741 	0.057845
34.71 	0.061057 	4766 	0.059951
34.75 	0.055532 	4808 	0.054314
34.79 	0.056799 	4824 	0.056192
34.83 	0.054093 	4862 	0.053611
34.87 	0.059573 	4868 	0.058971
34.91 	0.057763 	4882 	0.057283
34.95 	0.061963 	4890 	0.061604
34.99 	0.057382 	4897 	0.056425
35.03 	0.058264 	4943 	0.057198
35.07 	0.059717 	4940 	0.058274
35.11 	0.067314 	4947 	0.066465
35.15 	0.060158 	4937 	0.058359
35.19 	0.052206 	4942 	0.051613
35.23 	0.060061 	4945 	0.058758
35.27 	0.061641 	4948 	0.059609
35.31 	0.064058 	4933 	0.063227
35.35 	0.060502 	4942 	0.058941
35.39 	0.052983 	4945 	0.052627
35.43 	0.055544 	4933 	0.054832
35.47 	0.054756 	4931 	0.053924
35.51 	0.058262 	4926 	0.057291
35.55 	0.057230 	4945 	0.056756
35.59 	0.063903 	4945 	0.062837
35.63 	0.060490 	4943 	0.059522
35.67 	0.058276 	4942 	0.057328
35.71 	0.060361 	4937 	0.059036
35.75 	0.056581 	4931 	0.055630
35.79 	0.061436 	4932 	0.060129
35.83 	0.061868 	4946 	0.061631
35.87 	0.059720 	4923 	0.058530
35.91 	0.055815 	4927 	0.054864
35.95 	0.063657 	4917 	0.063180
35.99 	0.054464 	4939 	0.053397
36.03 	0.059073 	4943 	0.058481
36.07 	0.053857 	4939 	0.053383
36.11 	0.062487 	4929 	0.061180
36.15 	0.063171 	4939 	0.062103
36.19 	0.055870 	4940 	0.054309
36.23 	0.056535 	4935 	0.055348
36.27 	0.057056 	4925 	0.056204
36.31 	0.059456 	4928 	0.058386
36.35 	0.054981 	4929 	0.054149
36.39 	0.062995 	4921 	0.061686
36.43 	0.057224 	4928 	0.056035
36.47 	0.059765 	4936 	0.058697
36.51 	0.056963 	4933 	0.056013
36.55 	0.058859 	4927 	0.057789
36.59 	0.056287 	4939 	0.055338
36.63 	0.058203 	4931 	0.057015
36.67 	0.061258 	4930 	0.059832
36.71 	0.056289 	4921 	0.055575
36.75 	0.050971 	4944 	0.050615
36.79 	0.059134 	4921 	0.058420
36.83 	0.056155 	4915 	0.055440
36.87 	0.057039 	4944 	0.055617
36.91 	0.064157 	4941 	0.063209
36.95 	0.051693 	4933 	0.050980
36.99 	0.058359 	4935 	0.057409
37.03 	0.056255 	4924 	0.055422
37.07 	0.058967 	4935 	0.057879
37.11 	0.053293 	4935 	0.052818
37.15 	0.058668 	4909 	0.057952
37.19 	0.055228 	4925 	0.054019
37.23 	0.050427 	4918 	0.049355
37.27 	0.054761 	4894 	0.054043
37.31 	0.055319 	4935 	0.054370
37.35 	0.058121 	4938 	0.056678
37.39 	0.055972 	4931 	0.054903
37.43 	0.052717 	4932 	0.051767
37.47 	0.058227 	4929 	0.056801
37.51 	0.057774 	4933 	0.055993
37.55 	0.059838 	4930 	0.058016
37.59 	0.052289 	4915 	0.051931
37.63 	0.052043 	4919 	0.051090
37.67 	0.052202 	4904 	0.051247
37.71 	0.054575 	4929 	0.054080
37.75 	0.054049 	4940 	0.053456
37.79 	0.053347 	4930 	0.052396
37.83 	0.052033 	4920 	0.051318
37.87 	0.052237 	4939 	0.051644
37.91 	0.054564 	4930 	0.054089
37.95 	0.053851 	4921 	0.053137
37.99 	0.049674 	4912 	0.048720
38.03 	0.048482 	4909 	0.047766
38.07 	0.057038 	4909 	0.055606
38.11 	0.052888 	4935 	0.052175
38.15 	0.056527 	4918 	0.055455
38.19 	0.053550 	4930 	0.052837
38.23 	0.058728 	4938 	0.058016
38.27 	0.054361 	4930 	0.053173
38.31 	0.057845 	4927 	0.056874
38.35 	0.057224 	4928 	0.056630
38.39 	0.063149 	4909 	0.062433
38.43 	0.061229 	4916 	0.059273
38.47 	0.063990 	4907 	0.063274
38.51 	0.062044 	4932 	0.060975
38.55 	0.063614 	4936 	0.061914
38.59 	0.067831 	4924 	0.066403
38.63 	0.062348 	4924 	0.061396
38.67 	0.065424 	4937 	0.063625
38.71 	0.062348 	4924 	0.061277
38.75 	0.058250 	4927 	0.057299
38.79 	0.058776 	4934 	0.057569
38.83 	0.049400 	4919 	0.048686
38.87 	0.052331 	4911 	0.051616
38.91 	0.054252 	4903 	0.053775
38.95 	0.054087 	4918 	0.053491
38.99 	0.054081 	4937 	0.053014
39.03 	0.045805 	4934 	0.044736
39.07 	0.048335 	4924 	0.047621
39.11 	0.045427 	4931 	0.045189
39.15 	0.049847 	4915 	0.049490
39.19 	0.053691 	4917 	0.052738
39.23 	0.045279 	4925 	0.044684
39.27 	0.048269 	4910 	0.047911
39.31 	0.045250 	4884 	0.045010
39.35 	0.044174 	4935 	0.043225
39.39 	0.041996 	4929 	0.041521
39.43 	0.048855 	4933 	0.048380
39.47 	0.042048 	4923 	0.041334
39.51 	0.046710 	4924 	0.045639
39.55 	0.044521 	4919 	0.044045
39.59 	0.044788 	4912 	0.044192
39.63 	0.043072 	4922 	0.042715
39.67 	0.045186 	4913 	0.044471
39.71 	0.047395 	4895 	0.046677
39.75 	0.052557 	4928 	0.052081
39.79 	0.043646 	4926 	0.043170
39.83 	0.044386 	4934 	0.043911
39.87 	0.044467 	4925 	0.044110
39.91 	0.044697 	4922 	0.044340
39.95 	0.043947 	4915 	0.043232
39.99 	0.045215 	4932 	0.044859
40.03 	0.046266 	4928 	0.045672
40.07 	0.045501 	4923 	0.044787
40.11 	0.044752 	4916 	0.043918
40.15 	0.039894 	4913 	0.039179
40.19 	0.045040 	4929 	0.044208
40.23 	0.046229 	4932 	0.045754
40.27 	0.042941 	4937 	0.042585
40.31 	0.047176 	4939 	0.046108
40.35 	0.041269 	4919 	0.040911
40.39 	0.041168 	4931 	0.041168
40.43 	0.045916 	4922 	0.045559
40.47 	0.046360 	4918 	0.045884
40.51 	0.040431 	4922 	0.040193
40.55 	0.043806 	4908 	0.042971
40.59 	0.046182 	4937 	0.045351
40.63 	0.040771 	4930 	0.040058
40.67 	0.049270 	4932 	0.048795
40.71 	0.043390 	4932 	0.042915
40.75 	0.043196 	4931 	0.042959
40.79 	0.050366 	4924 	0.049771
40.83 	0.049107 	4928 	0.048751
40.87 	0.044237 	4928 	0.043880
40.91 	0.046313 	4923 	0.045956
40.95 	0.043761 	4913 	0.043404
40.99 	0.044070 	4924 	0.043475
41.03 	0.043629 	4905 	0.043271
41.07 	0.040365 	4930 	0.040009
41.11 	0.043769 	4935 	0.043413
41.15 	0.042704 	4941 	0.042230
41.19 	0.042191 	4930 	0.041715
41.23 	0.039887 	4939 	0.039649
41.27 	0.038735 	4931 	0.038259
41.31 	0.045003 	4933 	0.043578
41.35 	0.036047 	4938 	0.035454
41.39 	0.043989 	4933 	0.043396
41.43 	0.038344 	4929 	0.037869
41.47 	0.045676 	4926 	0.044487
41.51 	0.042510 	4940 	0.042036
41.55 	0.035664 	4935 	0.034951
41.59 	0.037503 	4933 	0.036909
41.63 	0.044350 	4938 	0.043875
41.67 	0.035223 	4940 	0.034748
41.71 	0.045805 	4934 	0.045211
41.75 	0.038953 	4929 	0.038715
41.79 	0.041262 	4944 	0.041144
41.83 	0.038352 	4928 	0.037877
41.87 	0.037690 	4935 	0.037077
41.91 	0.040316 	4936 	0.039723
41.95 	0.041979 	4931 	0.041504
41.99 	0.037309 	4905 	0.036831
42.03 	0.045353 	4939 	0.045116
42.07 	0.033219 	4937 	0.032981
42.11 	0.035592 	4945 	0.035236
42.15 	0.040097 	4938 	0.039504
42.19 	0.035045 	4908 	0.034567
42.23 	0.042110 	4892 	0.041750
42.27 	0.040419 	4874 	0.039938
42.31 	0.042430 	4855 	0.041827
42.35 	0.040926 	4838 	0.040684
42.39 	0.032473 	4804 	0.031863
42.43 	0.037354 	4792 	0.036743
42.47 	0.038615 	4765 	0.038246
42.51 	0.038372 	4743 	0.037878
42.55 	0.038870 	4708 	0.038497
42.59 	0.041658 	4729 	0.041039
42.63 	0.038225 	4709 	0.037333
42.67 	0.036721 	4684 	0.036346
42.71 	0.033455 	4663 	0.033078
42.75 	0.039853 	4617 	0.039472
42.79 	0.036010 	4582 	0.035755
42.83 	0.045414 	4536 	0.044510
42.87 	0.036008 	4499 	0.035748
42.91 	0.036804 	4456 	0.036673
42.95 	0.040761 	4416 	0.040098
42.99 	0.039225 	4385 	0.039091
43.03 	0.040157 	4333 	0.039211
43.07 	0.037244 	4296 	0.037108
43.11 	0.034548 	4255 	0.034410
43.15 	0.036139 	4206 	0.035860
43.19 	0.039342 	4194 	0.039202
43.23 	0.035388 	4154 	0.034965
43.27 	0.045067 	4105 	0.044782
43.31 	0.039470 	4079 	0.039327
43.35 	0.037450 	4032 	0.037305
43.39 	0.042729 	4002 	0.042290
43.43 	0.039394 	3960 	0.038950
43.47 	0.038256 	3921 	0.037807
43.51 	0.040753 	3877 	0.040300
43.55 	0.040148 	2964 	0.039753
43.59 	0.036082 	1746 	0.035747
43.63 	0.035964 	1001 	0.035379
43.67 	0.023904 	502 	0.023904
43.71 	0.071130 	239 	0.071130
43.75 	0.000000 	16 	0.000000