Folder: Bessy-II-KMC-II-insitu-sin2psi/Example_Data (part 97)

File: 25SC_s1_0039.001.dat
#F C:\frames\spec\25SC_s1_0039.001
#C title =s:39 frm:1 25SC_s1
#C wavelength =0.15406

#S 1  fr_average C:\frames\spec\25SC_s1_0039.001 C:\win32app\speccom\mask.axs chi 0 180 0 360 0.02
#C 2 theta =0.000000 to 180 deg
#C   q   =0.000000 to 81.568 nm^-1
#C  chi  =0.000000 to 360 deg
#C collumns:
#C  1 position (2theta or chi in degrees)
#C  2 average intensity (sum of all counts in the region divided with number of pixels)
#C  3 Number of pixels in region)
#C  4 error (sum of sqrt(intensity) for all pixels divided by number)
#N 4
#L TTh  Int  N_pix  Err
32.99 	0.081967 	61 	0.081967
33.03 	0.061107 	1391 	0.060265
33.07 	0.066341 	2050 	0.065484
33.11 	0.059325 	2579 	0.057735
33.15 	0.057686 	2999 	0.055928
33.19 	0.065530 	3342 	0.063952
33.23 	0.057621 	3523 	0.056790
33.27 	0.057576 	3630 	0.055935
33.31 	0.059290 	3660 	0.058809
33.35 	0.056308 	3694 	0.056308
33.39 	0.056852 	3729 	0.056223
33.43 	0.067801 	3761 	0.067334
33.47 	0.056345 	3798 	0.055420
33.51 	0.055308 	3815 	0.054694
33.55 	0.054645 	3843 	0.054035
33.59 	0.059278 	3880 	0.057769
33.63 	0.061750 	3919 	0.060405
33.67 	0.056904 	3954 	0.056164
33.71 	0.066164 	3975 	0.064985
33.75 	0.052263 	3999 	0.052117
33.79 	0.055184 	4041 	0.053880
33.83 	0.063210 	4050 	0.061763
33.87 	0.059596 	4111 	0.058884
33.91 	0.056399 	4149 	0.056117
33.95 	0.060990 	4181 	0.060710
33.99 	0.054524 	4200 	0.053269
34.03 	0.051602 	4244 	0.051188
34.07 	0.057873 	4268 	0.056775
34.11 	0.058577 	4302 	0.057602
34.15 	0.058416 	4331 	0.057469
34.19 	0.060064 	4362 	0.059124
34.23 	0.056681 	4393 	0.056148
34.27 	0.060380 	4422 	0.058525
34.31 	0.062135 	4458 	0.060296
34.35 	0.057092 	4484 	0.056308
34.39 	0.057752 	4502 	0.056581
34.43 	0.059264 	4539 	0.057715
34.47 	0.052918 	4592 	0.052535
34.51 	0.059488 	4606 	0.058089
34.55 	0.057075 	4643 	0.055940
34.59 	0.055615 	4675 	0.055239
34.63 	0.056476 	4710 	0.055356
34.67 	0.050411 	4741 	0.049794
34.71 	0.058540 	4766 	0.057556
34.75 	0.056572 	4808 	0.055598
34.79 	0.054312 	4824 	0.053583
34.83 	0.055327 	4862 	0.054363
34.87 	0.053205 	4868 	0.052122
34.91 	0.056739 	4882 	0.056019
34.95 	0.049898 	4890 	0.049299
34.99 	0.059628 	4897 	0.058432
35.03 	0.064738 	4943 	0.063434
35.07 	0.057895 	4940 	0.057065
35.11 	0.054579 	4947 	0.053513
35.15 	0.057322 	4937 	0.056492
35.19 	0.058681 	4942 	0.057495
35.23 	0.059454 	4945 	0.058743
35.27 	0.052749 	4948 	0.051920
35.31 	0.052098 	4933 	0.051623
35.35 	0.055443 	4942 	0.054495
35.39 	0.057230 	4945 	0.056400
35.43 	0.055950 	4933 	0.055237
35.47 	0.053133 	4931 	0.051826
35.51 	0.056232 	4926 	0.055281
35.55 	0.053994 	4945 	0.053402
35.59 	0.055207 	4945 	0.054477
35.63 	0.052195 	4943 	0.051958
35.67 	0.054836 	4942 	0.053987
35.71 	0.050638 	4937 	0.049807
35.75 	0.058203 	4931 	0.056778
35.79 	0.053933 	4932 	0.053340
35.83 	0.054590 	4946 	0.053997
35.87 	0.055048 	4923 	0.054453
35.91 	0.053379 	4927 	0.052547
35.95 	0.057352 	4917 	0.056518
35.99 	0.059931 	4939 	0.058745
36.03 	0.054420 	4943 	0.053709
36.07 	0.051832 	4939 	0.051477
36.11 	0.056198 	4929 	0.055723
36.15 	0.051630 	4939 	0.050800
36.19 	0.061538 	4940 	0.060471
36.23 	0.054914 	4935 	0.054320
36.27 	0.051777 	4925 	0.050825
36.31 	0.051339 	4928 	0.050250
36.35 	0.058633 	4929 	0.058038
36.39 	0.057509 	4921 	0.056794
36.43 	0.054586 	4928 	0.053853
36.47 	0.060981 	4936 	0.060268
36.51 	0.055342 	4933 	0.053897
36.55 	0.051350 	4927 	0.050874
36.59 	0.057502 	4939 	0.056197
36.63 	0.055972 	4931 	0.055022
36.67 	0.053347 	4930 	0.052634
36.71 	0.051209 	4921 	0.050495
36.75 	0.059871 	4944 	0.059160
36.79 	0.060354 	4921 	0.059758
36.83 	0.054527 	4915 	0.053812
36.87 	0.055825 	4944 	0.054858
36.91 	0.055454 	4941 	0.054387
36.95 	0.053923 	4933 	0.053566
36.99 	0.058764 	4935 	0.057696
37.03 	0.052600 	4924 	0.051886
37.07 	0.055117 	4935 	0.054167
37.11 	0.059372 	4935 	0.057829
37.15 	0.057853 	4909 	0.057256
37.19 	0.053401 	4925 	0.052687
37.23 	0.056120 	4918 	0.055048
37.27 	0.058235 	4894 	0.057277
37.31 	0.056940 	4935 	0.055872
37.35 	0.050425 	4938 	0.049714
37.39 	0.053944 	4931 	0.052994
37.43 	0.055961 	4932 	0.054892
37.47 	0.057415 	4929 	0.056583
37.51 	0.058585 	4933 	0.058348
37.55 	0.053347 	4930 	0.052753
37.59 	0.052085 	4915 	0.050655
37.63 	0.052450 	4919 	0.051735
37.67 	0.054241 	4904 	0.052927
37.71 	0.054372 	4929 	0.053302
37.75 	0.055870 	4940 	0.054922
37.79 	0.050507 	4930 	0.049913
37.83 	0.056504 	4920 	0.055790
37.87 	0.054464 	4939 	0.053871
37.91 	0.056187 	4930 	0.054998
37.95 	0.052225 	4921 	0.051491
37.99 	0.051914 	4912 	0.051556
38.03 	0.051334 	4909 	0.051096
38.07 	0.054390 	4909 	0.053555
38.11 	0.060588 	4935 	0.059638
38.15 	0.058764 	4918 	0.058287
38.19 	0.058418 	4930 	0.057230
38.23 	0.069461 	4938 	0.068631
38.27 	0.066126 	4930 	0.064680
38.31 	0.063730 	4927 	0.062046
38.35 	0.064326 	4928 	0.062980
38.39 	0.073538 	4909 	0.071510
38.43 	0.074247 	4916 	0.073175
38.47 	0.069696 	4907 	0.068861
38.51 	0.071573 	4932 	0.070386
38.55 	0.070502 	4936 	0.069197
38.59 	0.069456 	4924 	0.068246
38.63 	0.070065 	4924 	0.068399
38.67 	0.070691 	4937 	0.069386
38.71 	0.061738 	4924 	0.060787
38.75 	0.059062 	4927 	0.058230
38.79 	0.056141 	4934 	0.055666
38.83 	0.056312 	4919 	0.055955
38.87 	0.047241 	4911 	0.046764
38.91 	0.052417 	4903 	0.051222
38.95 	0.051037 	4918 	0.050441
38.99 	0.049423 	4937 	0.048711
39.03 	0.046210 	4934 	0.045735
39.07 	0.048944 	4924 	0.048587
39.11 	0.042588 	4931 	0.042350
39.15 	0.048627 	4915 	0.048269
39.19 	0.042912 	4917 	0.042555
39.23 	0.048122 	4925 	0.047170
39.27 	0.038493 	4910 	0.038493
39.31 	0.044636 	4884 	0.043916
39.35 	0.039716 	4935 	0.038767
39.39 	0.043417 	4929 	0.042822
39.43 	0.048652 	4933 	0.048058
39.47 	0.042454 	4923 	0.042216
39.51 	0.043867 	4924 	0.043391
39.55 	0.044928 	4919 	0.044571
39.59 	0.050285 	4912 	0.049808
39.63 	0.042056 	4922 	0.041818
39.67 	0.042337 	4913 	0.041860
39.71 	0.046170 	4895 	0.045691
39.75 	0.044237 	4928 	0.043148
39.79 	0.046488 	4926 	0.045755
39.83 	0.043373 	4934 	0.042779
39.87 	0.044264 	4925 	0.043788
39.91 	0.040024 	4922 	0.039548
39.95 	0.045982 	4915 	0.045743
39.99 	0.047648 	4932 	0.047054
40.03 	0.041396 	4928 	0.040564
40.07 	0.044891 	4923 	0.043820
40.11 	0.040480 	4916 	0.040242
40.15 	0.042133 	4913 	0.042014
40.19 	0.042402 	4929 	0.041333
40.23 	0.042376 	4932 	0.041426
40.27 	0.042536 	4937 	0.042417
40.31 	0.040089 	4939 	0.039377
40.35 	0.040049 	4919 	0.039215
40.39 	0.042588 	4931 	0.042212
40.43 	0.042666 	4922 	0.042071
40.47 	0.042904 	4918 	0.042308
40.51 	0.044291 	4922 	0.043220
40.55 	0.041769 	4908 	0.041172
40.59 	0.046587 	4937 	0.046112
40.63 	0.047667 	4930 	0.047192
40.67 	0.044201 	4932 	0.043726
40.71 	0.043187 	4932 	0.042712
40.75 	0.038532 	4931 	0.038413
40.79 	0.038383 	4924 	0.038027
40.83 	0.043831 	4928 	0.043356
40.87 	0.042208 	4928 	0.041713
40.91 	0.040219 	4923 	0.039862
40.95 	0.039284 	4913 	0.039045
40.99 	0.039602 	4924 	0.039364
41.03 	0.039551 	4905 	0.039193
41.07 	0.041988 	4930 	0.041493
41.11 	0.040527 	4935 	0.039459
41.15 	0.034001 	4941 	0.033527
41.19 	0.042191 	4930 	0.041359
41.23 	0.043531 	4939 	0.042938
41.27 	0.041371 	4931 	0.040896
41.31 	0.043989 	4933 	0.043752
41.35 	0.037870 	4938 	0.037395
41.39 	0.039732 	4933 	0.039139
41.43 	0.038953 	4929 	0.038002
41.47 	0.042428 	4926 	0.042071
41.51 	0.036640 	4940 	0.036284
41.55 	0.042756 	4935 	0.042281
41.59 	0.040746 	4933 	0.040034
41.63 	0.035237 	4938 	0.035000
41.67 	0.036032 	4940 	0.035914
41.71 	0.041548 	4934 	0.040955
41.75 	0.039156 	4929 	0.039037
41.79 	0.043083 	4944 	0.042609
41.83 	0.046672 	4928 	0.045959
41.87 	0.036474 	4935 	0.035762
41.91 	0.044368 	4936 	0.043419
41.95 	0.043399 	4931 	0.042924
41.99 	0.038940 	4905 	0.038343
42.03 	0.032395 	4939 	0.032395
42.07 	0.034231 	4937 	0.033994
42.11 	0.034580 	4945 	0.034343
42.15 	0.039895 	4938 	0.039539
42.19 	0.038916 	4908 	0.038797
42.23 	0.038226 	4892 	0.037148
42.27 	0.041034 	4874 	0.040553
42.31 	0.033368 	4855 	0.032885
42.35 	0.032451 	4838 	0.031967
42.39 	0.036012 	4804 	0.035402
42.43 	0.035058 	4792 	0.034672
42.47 	0.036936 	4765 	0.036321
42.51 	0.037529 	4743 	0.037405
42.55 	0.035684 	4708 	0.035166
42.59 	0.040812 	4729 	0.040317
42.63 	0.033553 	4709 	0.033304
42.67 	0.037575 	4684 	0.037450
42.71 	0.037958 	4663 	0.037582
42.75 	0.038986 	4617 	0.038606
42.79 	0.037756 	4582 	0.037373
42.83 	0.037698 	4536 	0.037311
42.87 	0.036675 	4499 	0.036284
42.91 	0.039946 	4456 	0.039552
42.95 	0.038723 	4416 	0.038192
42.99 	0.041505 	4385 	0.041104
43.03 	0.035772 	4333 	0.035502
43.07 	0.040037 	4296 	0.039628
43.11 	0.037368 	4255 	0.036679
43.15 	0.036377 	4206 	0.035959
43.19 	0.039342 	4194 	0.038923
43.23 	0.038036 	4154 	0.037049
43.27 	0.038246 	4105 	0.037961
43.31 	0.038735 	4079 	0.038735
43.35 	0.035218 	4032 	0.034928
43.39 	0.037731 	4002 	0.037585
43.43 	0.035101 	3960 	0.034509
43.47 	0.040296 	3921 	0.039698
43.51 	0.042043 	3877 	0.041111
43.55 	0.040486 	2964 	0.040288
43.59 	0.033219 	1746 	0.033219
43.63 	0.024975 	1001 	0.024975
43.67 	0.021912 	502 	0.020745
43.71 	0.041841 	239 	0.039390
43.75 	0.000000 	16 	0.000000

File: 25SC_s1_0039.002.dat
#F C:\frames\spec\25SC_s1_0039.002
#C title =s:39 frm:2 25SC_s1
#C wavelength =0.15406

#S 1  fr_average C:\frames\spec\25SC_s1_0039.002 C:\win32app\speccom\mask.axs chi 0 180 0 360 0.02
#C 2 theta =0.000000 to 180 deg
#C   q   =0.000000 to 81.568 nm^-1
#C  chi  =0.000000 to 360 deg
#C collumns:
#C  1 position (2theta or chi in degrees)
#C  2 average intensity (sum of all counts in the region divided with number of pixels)
#C  3 Number of pixels in region)
#C  4 error (sum of sqrt(intensity) for all pixels divided by number)
#N 4
#L TTh  Int  N_pix  Err
32.99 	0.081967 	61 	0.081967
33.03 	0.061826 	1391 	0.060984
33.07 	0.058537 	2050 	0.057965
33.11 	0.057387 	2579 	0.056705
33.15 	0.061354 	2999 	0.060182
33.19 	0.063136 	3342 	0.061909
33.23 	0.045984 	3523 	0.044820
33.27 	0.060331 	3630 	0.058394
33.31 	0.054645 	3660 	0.054325
33.35 	0.052518 	3694 	0.051725
33.39 	0.055511 	3729 	0.055040
33.43 	0.053709 	3761 	0.052930
33.47 	0.054502 	3798 	0.053114
33.51 	0.064482 	3815 	0.062947
33.55 	0.058028 	3843 	0.056961
33.59 	0.055670 	3880 	0.054009
33.63 	0.061240 	3919 	0.060493
33.67 	0.064745 	3954 	0.063683
33.71 	0.062138 	3975 	0.061402
33.75 	0.054514 	3999 	0.053488
33.79 	0.057412 	4041 	0.056083
33.83 	0.049630 	4050 	0.048762
33.87 	0.063002 	4111 	0.061862
33.91 	0.053025 	4149 	0.052037
33.95 	0.050706 	4181 	0.049865
33.99 	0.059048 	4200 	0.058211
34.03 	0.047361 	4244 	0.046809
34.07 	0.062793 	4268 	0.061695
34.11 	0.049279 	4302 	0.049143
34.15 	0.057723 	4331 	0.057318
34.19 	0.052040 	4362 	0.051100
34.23 	0.060551 	4393 	0.059884
34.27 	0.056762 	4422 	0.055834
34.31 	0.059668 	4458 	0.058354
34.35 	0.050847 	4484 	0.049933
34.39 	0.057086 	4502 	0.056045
34.43 	0.061247 	4539 	0.059956
34.47 	0.054225 	4592 	0.052694
34.51 	0.052757 	4606 	0.051867
34.55 	0.053198 	4643 	0.052820
34.59 	0.055829 	4675 	0.054325
34.63 	0.050955 	4710 	0.050582
34.67 	0.053997 	4741 	0.053256
34.71 	0.053504 	4766 	0.052275
34.75 	0.055740 	4808 	0.055009
34.79 	0.051824 	4824 	0.050974
34.83 	0.054504 	4862 	0.053781
34.87 	0.057313 	4868 	0.056230
34.91 	0.057558 	4882 	0.056718
34.95 	0.057260 	4890 	0.056042
34.99 	0.049418 	4897 	0.049059
35.03 	0.052195 	4943 	0.051247
35.07 	0.055061 	4940 	0.054349
35.11 	0.060036 	4947 	0.058695
35.15 	0.051246 	4937 	0.050652
35.19 	0.053217 	4942 	0.052625
35.23 	0.052376 	4945 	0.051665
35.27 	0.054163 	4948 	0.053453
35.31 	0.056152 	4933 	0.055084
35.35 	0.054229 	4942 	0.053281
35.39 	0.051365 	4945 	0.050773
35.43 	0.059193 	4933 	0.058124
35.47 	0.058609 	4931 	0.057896
35.51 	0.054405 	4926 	0.053454
35.55 	0.054601 	4945 	0.053771
35.59 	0.060465 	4945 	0.059399
35.63 	0.053409 	4943 	0.052698
35.67 	0.054431 	4942 	0.053365
35.71 	0.060766 	4937 	0.059777
35.75 	0.056581 	4931 	0.055967
35.79 	0.054136 	4932 	0.053424
35.83 	0.053983 	4946 	0.053154
35.87 	0.056267 	4923 	0.055910
35.91 	0.049726 	4927 	0.048894
35.95 	0.055318 	4917 	0.054603
35.99 	0.056287 	4939 	0.055219
36.03 	0.057253 	4943 	0.056423
36.07 	0.059324 	4939 	0.058731
36.11 	0.053155 	4929 	0.052442
36.15 	0.055679 	4939 	0.054612
36.19 	0.056275 	4940 	0.055564
36.23 	0.055117 	4935 	0.054503
36.27 	0.049543 	4925 	0.048592
36.31 	0.053571 	4928 	0.052977
36.35 	0.052952 	4929 	0.052001
36.39 	0.053444 	4921 	0.052373
36.43 	0.056209 	4928 	0.055496
36.47 	0.054092 	4936 	0.053380
36.51 	0.049463 	4933 	0.049107
36.55 	0.057845 	4927 	0.056774
36.59 	0.051225 	4939 	0.050751
36.63 	0.056175 	4931 	0.054730
36.67 	0.052130 	4930 	0.050823
36.71 	0.053241 	4921 	0.052289
36.75 	0.055825 	4944 	0.054285
36.79 	0.055680 	4921 	0.054846
36.83 	0.055341 	4915 	0.054030
36.87 	0.050162 	4944 	0.049194
36.91 	0.052621 	4941 	0.051791
36.95 	0.048247 	4933 	0.047415
36.99 	0.055319 	4935 	0.054488
37.03 	0.054630 	4924 	0.054273
37.07 	0.052685 	4935 	0.051854
37.11 	0.050456 	4935 	0.049981
37.15 	0.055612 	4909 	0.055135
37.19 	0.050152 	4925 	0.049320
37.23 	0.051240 	4918 	0.050049
37.27 	0.049244 	4894 	0.048526
37.31 	0.053090 	4935 	0.052497
37.35 	0.051033 	4938 	0.050183
37.39 	0.046035 	4931 	0.045659
37.43 	0.059813 	4932 	0.058606
37.47 	0.052140 	4929 	0.051190
37.51 	0.049666 	4933 	0.048834
37.55 	0.051927 	4930 	0.051571
37.59 	0.050051 	4915 	0.049336
37.63 	0.056922 	4919 	0.055969
37.67 	0.052406 	4904 	0.051570
37.71 	0.054778 	4929 	0.053451
37.75 	0.054049 	4940 	0.053337
37.79 	0.045233 	4930 	0.044520
37.83 	0.054268 	4920 	0.053673
37.87 	0.050820 	4939 	0.050108
37.91 	0.054158 	4930 	0.053564
37.95 	0.046332 	4921 	0.045499
37.99 	0.061075 	4912 	0.059882
38.03 	0.049908 	4909 	0.048596
38.07 	0.046445 	4909 	0.046087
38.11 	0.052482 	4935 	0.051632
38.15 	0.052054 	4918 	0.051339
38.19 	0.057606 	4930 	0.056299
38.23 	0.049615 	4938 	0.048666
38.27 	0.056389 	4930 	0.055439
38.31 	0.053785 	4927 	0.053191
38.35 	0.057427 	4928 	0.056001
38.39 	0.062946 	4909 	0.061991
38.43 	0.064687 	4916 	0.063138
38.47 	0.064602 	4907 	0.063766
38.51 	0.063666 	4932 	0.062834
38.55 	0.063614 	4936 	0.062289
38.59 	0.055443 	4924 	0.054610
38.63 	0.054630 	4924 	0.052945
38.67 	0.061373 	4937 	0.060068
38.71 	0.053818 	4924 	0.053342
38.75 	0.056424 	4927 	0.055235
38.79 	0.050466 	4934 	0.049991
38.83 	0.051637 	4919 	0.050446
38.87 	0.051313 	4911 	0.050956
38.91 	0.048338 	4903 	0.047979
38.95 	0.047174 	4918 	0.046102
38.99 	0.046384 	4937 	0.046028
39.03 	0.052088 	4934 	0.051000
39.07 	0.043867 	4924 	0.043272
39.11 	0.045224 	4931 	0.044868
39.15 	0.047609 	4915 	0.047013
39.19 	0.044539 	4917 	0.044063
39.23 	0.043452 	4925 	0.042976
39.27 	0.043585 	4910 	0.042749
39.31 	0.048321 	4884 	0.047242
39.35 	0.047416 	4935 	0.046586
39.39 	0.045648 	4929 	0.045173
39.43 	0.046017 	4933 	0.045542
39.47 	0.046516 	4923 	0.046159
39.51 	0.045288 	4924 	0.044575
39.55 	0.041269 	4919 	0.040911
39.59 	0.041327 	4912 	0.041089
39.63 	0.046526 	4922 	0.045812
39.67 	0.041522 	4913 	0.041284
39.71 	0.044944 	4895 	0.044226
39.75 	0.041599 	4928 	0.041242
39.79 	0.052984 	4926 	0.051914
39.83 	0.046210 	4934 	0.045141
39.87 	0.043249 	4925 	0.042654
39.91 	0.045713 	4922 	0.044880
39.95 	0.047406 	4915 	0.046810
39.99 	0.039943 	4932 	0.039468
40.03 	0.044846 	4928 	0.044014
40.07 	0.044688 	4923 	0.044450
40.11 	0.047803 	4916 	0.046969
40.15 	0.047222 	4913 	0.046745
40.19 	0.047068 	4929 	0.046712
40.23 	0.035483 	4932 	0.035126
40.27 	0.043751 	4937 	0.043039
40.31 	0.046973 	4939 	0.046380
40.35 	0.044521 	4919 	0.044164
40.39 	0.045832 	4931 	0.045357
40.43 	0.038805 	4922 	0.038091
40.47 	0.041684 	4918 	0.041445
40.51 	0.047338 	4922 	0.046624
40.55 	0.038509 	4908 	0.038031
40.59 	0.044967 	4937 	0.044354
40.63 	0.040568 	4930 	0.040449
40.67 	0.040349 	4932 	0.039755
40.71 	0.039335 	4932 	0.038741
40.75 	0.045021 	4931 	0.044784
40.79 	0.045695 	4924 	0.045100
40.83 	0.039773 	4928 	0.039654
40.87 	0.043425 	4928 	0.043069
40.91 	0.041844 	4923 	0.041725
40.95 	0.041522 	4913 	0.041284
40.99 	0.041024 	4924 	0.040409
41.03 	0.046075 	4905 	0.045598
41.07 	0.036511 	4930 	0.036036
41.11 	0.041135 	4935 	0.040897
41.15 	0.044121 	4941 	0.043054
41.19 	0.042799 	4930 	0.041849
41.23 	0.037255 	4939 	0.036661
41.27 	0.039343 	4931 	0.038749
41.31 	0.041760 	4933 	0.041522
41.35 	0.043337 	4938 	0.042863
41.39 	0.042165 	4933 	0.041809
41.43 	0.040779 	4929 	0.040423
41.47 	0.040398 	4926 	0.040279
41.51 	0.043320 	4940 	0.042964
41.55 	0.042756 	4935 	0.042024
41.59 	0.039124 	4933 	0.038649
41.63 	0.037870 	4938 	0.037632
41.67 	0.039069 	4940 	0.038713
41.71 	0.037292 	4934 	0.037174
41.75 	0.032258 	4929 	0.031902
41.79 	0.045307 	4944 	0.044834
41.83 	0.039570 	4928 	0.039213
41.87 	0.042351 	4935 	0.041757
41.91 	0.039708 	4936 	0.039214
41.95 	0.036909 	4931 	0.036434
41.99 	0.039144 	4905 	0.038666
42.03 	0.034217 	4939 	0.033862
42.07 	0.033016 	4937 	0.032660
42.11 	0.041254 	4945 	0.041135
42.15 	0.040097 	4938 	0.039504
42.19 	0.037490 	4908 	0.036774
42.23 	0.038021 	4892 	0.037902
42.27 	0.042265 	4874 	0.042025
42.31 	0.039753 	4855 	0.039270
42.35 	0.036379 	4838 	0.036015
42.39 	0.035387 	4804 	0.035021
42.43 	0.041945 	4792 	0.041456
42.47 	0.041133 	4765 	0.040498
42.51 	0.037107 	4743 	0.036737
42.55 	0.036958 	4708 	0.036461
42.59 	0.039120 	4729 	0.038501
42.63 	0.035889 	4709 	0.035391
42.67 	0.038642 	4684 	0.038392
42.71 	0.040317 	4663 	0.039689
42.75 	0.039636 	4617 	0.039129
42.79 	0.039066 	4582 	0.038555
42.83 	0.037919 	4536 	0.037531
42.87 	0.036008 	4499 	0.035878
42.91 	0.034560 	4456 	0.034297
42.95 	0.037591 	4416 	0.037193
42.99 	0.033751 	4385 	0.033195
43.03 	0.039234 	4333 	0.038693
43.07 	0.038175 	4296 	0.037902
43.11 	0.037603 	4255 	0.037052
43.15 	0.034475 	4206 	0.033895
43.19 	0.036719 	4194 	0.036440
43.23 	0.040443 	4154 	0.040020
43.27 	0.039708 	4105 	0.038994
43.31 	0.034077 	4079 	0.033933
43.35 	0.037202 	4032 	0.036767
43.39 	0.037731 	4002 	0.037585
43.43 	0.038636 	3960 	0.038020
43.47 	0.038511 	3921 	0.037913
43.51 	0.036626 	3877 	0.036626
43.55 	0.035088 	2964 	0.034692
43.59 	0.034937 	1746 	0.034601
43.63 	0.033966 	1001 	0.033381
43.67 	0.029880 	502 	0.028714
43.71 	0.033473 	239 	0.033473
43.75 	0.000000 	16 	0.000000