Folder: Bessy-II-KMC-II-insitu-sin2psi/Example_Data (part 128)

File: 25SC_s1_0051.003.dat
#F C:\frames\spec\25SC_s1_0051.003
#C title =s:51 frm:3 25SC_s1
#C wavelength =0.15406

#S 1  fr_average C:\frames\spec\25SC_s1_0051.003 C:\win32app\speccom\mask.axs chi 0 180 0 360 0.02
#C 2 theta =0.000000 to 180 deg
#C   q   =0.000000 to 81.568 nm^-1
#C  chi  =0.000000 to 360 deg
#C collumns:
#C  1 position (2theta or chi in degrees)
#C  2 average intensity (sum of all counts in the region divided with number of pixels)
#C  3 Number of pixels in region)
#C  4 error (sum of sqrt(intensity) for all pixels divided by number)
#N 4
#L TTh  Int  N_pix  Err
32.99 	0.147541 	61 	0.128335
33.03 	0.064702 	1391 	0.063859
33.07 	0.056585 	2050 	0.055728
33.11 	0.059325 	2579 	0.057962
33.15 	0.055685 	2999 	0.054904
33.19 	0.056254 	3342 	0.055377
33.23 	0.058189 	3523 	0.057191
33.27 	0.054270 	3630 	0.053786
33.31 	0.052459 	3660 	0.051632
33.35 	0.058202 	3694 	0.056749
33.39 	0.062215 	3729 	0.061587
33.43 	0.056102 	3761 	0.055635
33.47 	0.050553 	3798 	0.049473
33.51 	0.054260 	3815 	0.053645
33.55 	0.055946 	3843 	0.055031
33.59 	0.053866 	3880 	0.053111
33.63 	0.058178 	3919 	0.057107
33.67 	0.061204 	3954 	0.059870
33.71 	0.051824 	3975 	0.050350
33.75 	0.052763 	3999 	0.051591
33.79 	0.056917 	4041 	0.055757
33.83 	0.057531 	4050 	0.056518
33.87 	0.054974 	4111 	0.053669
33.91 	0.057122 	4149 	0.056557
33.95 	0.050945 	4181 	0.050104
33.99 	0.060238 	4200 	0.059122
34.03 	0.052309 	4244 	0.050515
34.07 	0.058810 	4268 	0.057574
34.11 	0.050442 	4302 	0.049761
34.15 	0.057031 	4331 	0.056084
34.19 	0.063044 	4362 	0.062373
34.23 	0.054177 	4393 	0.053377
34.27 	0.050882 	4422 	0.050220
34.31 	0.052939 	4458 	0.051077
34.35 	0.054862 	4484 	0.053664
34.39 	0.060640 	4502 	0.059989
34.43 	0.051333 	4539 	0.050042
34.47 	0.052700 	4592 	0.051935
34.51 	0.054928 	4606 	0.054420
34.55 	0.057291 	4643 	0.055650
34.59 	0.051979 	4675 	0.051352
34.63 	0.056688 	4710 	0.055672
34.67 	0.064754 	4741 	0.063272
34.71 	0.060638 	4766 	0.059655
34.75 	0.057820 	4808 	0.057089
34.79 	0.052032 	4824 	0.051181
34.83 	0.055327 	4862 	0.054604
34.87 	0.052794 	4868 	0.051951
34.91 	0.055920 	4882 	0.055080
34.95 	0.055215 	4890 	0.054616
34.99 	0.061875 	4897 	0.061037
35.03 	0.061299 	4943 	0.060232
35.07 	0.047976 	4940 	0.047146
35.11 	0.062664 	4947 	0.060750
35.15 	0.058132 	4937 	0.057065
35.19 	0.054634 	4942 	0.053804
35.23 	0.055005 	4945 	0.053939
35.27 	0.057599 	4948 	0.057244
35.31 	0.053112 	4933 	0.052280
35.35 	0.054027 	4942 	0.052367
35.39 	0.051365 	4945 	0.050417
35.43 	0.053314 	4933 	0.052483
35.47 	0.055972 	4931 	0.055240
35.51 	0.055217 	4926 	0.054246
35.55 	0.053185 	4945 	0.052237
35.59 	0.054398 	4945 	0.053806
35.63 	0.050172 	4943 	0.048948
35.67 	0.058276 	4942 	0.057920
35.71 	0.057727 	4937 	0.056383
35.75 	0.052728 	4931 	0.051777
35.79 	0.052514 	4932 	0.051802
35.83 	0.053579 	4946 	0.052986
35.87 	0.050173 	4923 	0.049697
35.91 	0.054394 	4927 	0.053562
35.95 	0.053081 	4917 	0.052485
35.99 	0.053047 	4939 	0.052672
36.03 	0.049767 	4943 	0.049412
36.07 	0.049605 	4939 	0.049249
36.11 	0.053763 	4929 	0.052437
36.15 	0.061551 	4939 	0.060721
36.19 	0.051215 	4940 	0.050385
36.23 	0.052888 	4935 	0.052175
36.27 	0.056650 	4925 	0.055936
36.31 	0.059253 	4928 	0.058659
36.35 	0.051126 	4929 	0.050175
36.39 	0.048161 	4921 	0.047447
36.43 	0.056006 	4928 	0.054818
36.47 	0.045989 	4936 	0.045494
36.51 	0.048855 	4933 	0.048498
36.55 	0.049320 	4927 	0.048845
36.59 	0.051225 	4939 	0.050632
36.63 	0.049888 	4931 	0.049057
36.67 	0.054564 	4930 	0.053851
36.71 	0.045316 	4921 	0.045078
36.75 	0.057443 	4944 	0.056614
36.79 	0.050803 	4921 	0.050327
36.83 	0.049644 	4915 	0.049406
36.87 	0.054207 	4944 	0.053378
36.91 	0.048168 	4941 	0.047319
36.95 	0.046219 	4933 	0.045269
36.99 	0.050051 	4935 	0.048745
37.03 	0.052600 	4924 	0.050914
37.07 	0.053901 	4935 	0.053307
37.11 	0.055724 	4935 	0.054537
37.15 	0.048890 	4909 	0.048293
37.19 	0.049949 	4925 	0.049355
37.23 	0.053884 	4918 	0.053050
37.27 	0.052309 	4894 	0.051830
37.31 	0.052077 	4935 	0.051721
37.35 	0.047388 	4938 	0.047269
37.39 	0.048266 	4931 	0.047672
37.43 	0.053122 	4932 	0.052529
37.47 	0.051126 	4929 	0.050651
37.51 	0.048247 	4933 	0.047534
37.55 	0.048884 	4930 	0.048053
37.59 	0.049034 	4915 	0.048438
37.63 	0.052246 	4919 	0.051036
37.67 	0.051183 	4904 	0.050585
37.71 	0.050112 	4929 	0.049755
37.75 	0.051417 	4940 	0.050468
37.79 	0.051318 	4930 	0.050606
37.83 	0.052033 	4920 	0.051080
37.87 	0.053857 	4939 	0.053027
37.91 	0.050710 	4930 	0.049997
37.95 	0.051006 	4921 	0.050173
37.99 	0.049878 	4912 	0.049162
38.03 	0.052760 	4909 	0.051806
38.07 	0.051131 	4909 	0.050176
38.11 	0.045998 	4935 	0.045761
38.15 	0.051444 	4918 	0.049895
38.19 	0.051521 	4930 	0.050690
38.23 	0.051843 	4938 	0.051131
38.27 	0.051318 	4930 	0.050724
38.31 	0.047696 	4927 	0.046864
38.35 	0.052557 	4928 	0.052081
38.39 	0.060501 	4909 	0.059666
38.43 	0.058381 	4916 	0.056951
38.47 	0.057877 	4907 	0.057041
38.51 	0.056772 	4932 	0.055327
38.55 	0.058347 	4936 	0.057160
38.59 	0.051990 	4924 	0.050920
38.63 	0.057271 	4924 	0.056319
38.67 	0.052258 	4937 	0.051527
38.71 	0.054224 	4924 	0.053491
38.75 	0.056830 	4927 	0.055760
38.79 	0.045399 	4934 	0.044924
38.83 	0.055296 	4919 	0.054443
38.87 	0.047445 	4911 	0.046252
38.91 	0.047930 	4903 	0.046735
38.95 	0.043310 	4918 	0.042477
38.99 	0.044359 	4937 	0.043390
39.03 	0.042156 	4934 	0.041444
39.07 	0.059098 	4924 	0.057532
39.11 	0.045021 	4931 	0.044071
39.15 	0.043947 	4915 	0.043351
39.19 	0.041895 	4917 	0.041300
39.23 	0.042234 	4925 	0.041877
39.27 	0.050713 	4910 	0.049878
39.31 	0.042998 	4884 	0.042038
39.35 	0.042148 	4935 	0.041792
39.39 	0.041591 	4929 	0.041234
39.43 	0.051085 	4933 	0.049541
39.47 	0.043063 	4923 	0.042349
39.51 	0.046507 	4924 	0.045674
39.55 	0.046351 	4919 	0.045755
39.59 	0.046010 	4912 	0.045513
39.63 	0.046729 	4922 	0.045777
39.67 	0.054142 	4913 	0.053188
39.71 	0.046578 	4895 	0.046339
39.75 	0.043831 	4928 	0.043237
39.79 	0.045676 	4926 	0.044705
39.83 	0.044386 	4934 	0.044030
39.87 	0.046701 	4925 	0.046225
39.91 	0.047542 	4922 	0.046232
39.95 	0.042930 	4915 	0.042096
39.99 	0.040552 	4932 	0.039958
40.03 	0.045455 	4928 	0.045098
40.07 	0.045298 	4923 	0.044088
40.11 	0.042514 	4916 	0.041561
40.15 	0.045593 	4913 	0.045474
40.19 	0.045445 	4929 	0.044970
40.23 	0.039335 	4932 	0.038860
40.27 	0.042333 	4937 	0.042096
40.31 	0.044948 	4939 	0.044593
40.35 	0.044115 	4919 	0.043638
40.39 	0.044007 	4931 	0.042938
40.43 	0.043885 	4922 	0.042932
40.47 	0.040057 	4918 	0.039223
40.51 	0.040837 	4922 	0.040361
40.55 	0.044214 	4908 	0.043497
40.59 	0.039700 	4937 	0.039344
40.63 	0.044625 	4930 	0.044149
40.67 	0.044201 	4932 	0.043845
40.71 	0.045012 	4932 	0.044656
40.75 	0.040357 	4931 	0.039763
40.79 	0.046507 	4924 	0.045655
40.83 	0.045252 	4928 	0.044420
40.87 	0.045252 	4928 	0.044301
40.91 	0.041032 	4923 	0.040794
40.95 	0.037859 	4913 	0.037740
40.99 	0.040617 	4924 	0.040617
41.03 	0.043221 	4905 	0.042385
41.07 	0.039351 	4930 	0.038876
41.11 	0.037285 	4935 	0.036929
41.15 	0.042704 	4941 	0.041874
41.19 	0.041582 	4930 	0.041107
41.23 	0.040089 	4939 	0.039615
41.27 	0.044413 	4931 	0.043938
41.31 	0.042570 	4933 	0.041620
41.35 	0.045565 	4938 	0.044616
41.39 	0.044192 	4933 	0.043717
41.43 	0.040982 	4929 	0.040982
41.47 	0.044458 	4926 	0.043744
41.51 	0.038664 	4940 	0.038190
41.55 	0.044985 	4935 	0.044154
41.59 	0.045003 	4933 	0.044647
41.63 	0.042122 	4938 	0.042122
41.67 	0.039271 	4940 	0.038797
41.71 	0.040535 	4934 	0.040060
41.75 	0.040779 	4929 	0.040304
41.79 	0.041869 	4944 	0.041395
41.83 	0.039570 	4928 	0.039094
41.87 	0.040122 	4935 	0.039765
41.91 	0.044368 	4936 	0.043537
41.95 	0.045630 	4931 	0.045392
41.99 	0.037717 	4905 	0.037119
42.03 	0.036040 	4939 	0.035802
42.07 	0.040713 	4937 	0.040120
42.11 	0.041456 	4945 	0.040745
42.15 	0.040300 	4938 	0.039944
42.19 	0.038509 	4908 	0.038150
42.23 	0.037204 	4892 	0.036844
42.27 	0.044317 	4874 	0.044076
42.31 	0.039959 	4855 	0.039114
42.35 	0.032245 	4838 	0.032003
42.39 	0.038301 	4804 	0.038058
42.43 	0.036937 	4792 	0.036692
42.47 	0.035677 	4765 	0.035308
42.51 	0.037951 	4743 	0.037827
42.55 	0.039932 	4708 	0.039808
42.59 	0.039966 	4729 	0.039595
42.63 	0.039286 	4709 	0.038540
42.67 	0.035440 	4684 	0.035440
42.71 	0.038816 	4663 	0.038691
42.75 	0.038986 	4617 	0.038606
42.79 	0.035574 	4582 	0.035063
42.83 	0.035053 	4536 	0.034665
42.87 	0.044454 	4499 	0.044064
42.91 	0.043761 	4456 	0.043104
42.95 	0.038949 	4416 	0.038286
42.99 	0.040593 	4385 	0.040059
43.03 	0.037157 	4333 	0.036751
43.07 	0.038408 	4296 	0.038135
43.11 	0.042773 	4255 	0.042223
43.15 	0.037090 	4206 	0.036672
43.19 	0.044111 	4194 	0.043552
43.23 	0.038999 	4154 	0.038576
43.27 	0.037759 	4105 	0.037473
43.31 	0.041677 	4079 	0.041102
43.35 	0.042907 	4032 	0.042180
43.39 	0.046477 	4002 	0.045745
43.43 	0.041414 	3960 	0.040822
43.47 	0.040806 	3921 	0.040657
43.51 	0.035079 	3877 	0.034625
43.55 	0.034076 	2964 	0.033878
43.59 	0.032646 	1746 	0.032646
43.63 	0.034965 	1001 	0.034380
43.67 	0.059761 	502 	0.058594
43.71 	0.025105 	239 	0.025105
43.75 	0.125000 	16 	0.125000

File: 25SC_s1_0051.004.dat
#F C:\frames\spec\25SC_s1_0051.004
#C title =s:51 frm:4 25SC_s1
#C wavelength =0.15406

#S 1  fr_average C:\frames\spec\25SC_s1_0051.004 C:\win32app\speccom\mask.axs chi 0 180 0 360 0.02
#C 2 theta =0.000000 to 180 deg
#C   q   =0.000000 to 81.568 nm^-1
#C  chi  =0.000000 to 360 deg
#C collumns:
#C  1 position (2theta or chi in degrees)
#C  2 average intensity (sum of all counts in the region divided with number of pixels)
#C  3 Number of pixels in region)
#C  4 error (sum of sqrt(intensity) for all pixels divided by number)
#N 4
#L TTh  Int  N_pix  Err
32.99 	0.032787 	61 	0.032787
33.03 	0.050324 	1391 	0.048218
33.07 	0.054634 	2050 	0.054063
33.11 	0.054285 	2579 	0.053376
33.15 	0.048349 	2999 	0.046950
33.19 	0.046978 	3342 	0.046101
33.23 	0.050241 	3523 	0.049077
33.27 	0.055372 	3630 	0.054081
33.31 	0.051639 	3660 	0.051319
33.35 	0.047645 	3694 	0.047486
33.39 	0.048002 	3729 	0.047217
33.43 	0.049189 	3761 	0.048410
33.47 	0.060558 	3798 	0.059633
33.51 	0.057143 	3815 	0.055607
33.55 	0.054385 	3843 	0.053775
33.59 	0.054897 	3880 	0.053689
33.63 	0.049502 	3919 	0.048456
33.67 	0.057663 	3954 	0.056750
33.71 	0.047044 	3975 	0.046160
33.75 	0.046762 	3999 	0.046029
33.79 	0.058154 	4041 	0.057574
33.83 	0.049630 	4050 	0.048617
33.87 	0.050596 	4111 	0.050026
33.91 	0.055435 	4149 	0.054847
33.95 	0.049749 	4181 	0.048908
33.99 	0.050952 	4200 	0.050394
34.03 	0.052074 	4244 	0.051245
34.07 	0.052952 	4268 	0.052403
34.11 	0.053696 	4302 	0.053151
34.15 	0.052413 	4331 	0.051060
34.19 	0.046768 	4362 	0.046230
34.23 	0.049397 	4393 	0.048197
34.27 	0.055631 	4422 	0.054571
34.31 	0.059444 	4458 	0.058392
34.35 	0.051740 	4484 	0.050956
34.39 	0.053532 	4502 	0.053011
34.43 	0.056620 	4539 	0.055201
34.47 	0.044861 	4592 	0.044223
34.51 	0.053843 	4606 	0.052953
34.55 	0.049537 	4643 	0.049285
34.59 	0.057540 	4675 	0.056914
34.63 	0.055626 	4710 	0.055004
34.67 	0.053153 	4741 	0.052536
34.71 	0.057700 	4766 	0.056471
34.75 	0.052413 	4808 	0.052047
34.79 	0.057836 	4824 	0.056864
34.83 	0.058412 	4862 	0.056966
34.87 	0.050329 	4868 	0.049005
34.91 	0.053052 	4882 	0.052092
34.95 	0.050716 	4890 	0.050117
34.99 	0.051256 	4897 	0.049940
35.03 	0.051588 	4943 	0.050759
35.07 	0.053239 	4940 	0.052271
35.11 	0.056398 	4947 	0.055431
35.15 	0.049018 	4937 	0.048424
35.19 	0.048563 	4942 	0.048089
35.23 	0.051567 	4945 	0.050738
35.27 	0.050525 	4948 	0.049578
35.31 	0.048855 	4933 	0.048498
35.35 	0.054027 	4942 	0.053671
35.39 	0.045703 	4945 	0.044992
35.43 	0.054936 	4933 	0.053986
35.47 	0.054958 	4931 	0.054127
35.51 	0.049127 	4926 	0.048176
35.55 	0.047523 	4945 	0.047049
35.59 	0.057230 	4945 	0.056282
35.63 	0.049970 	4943 	0.048903
35.67 	0.046742 	4942 	0.045912
35.71 	0.054892 	4937 	0.053705
35.75 	0.053944 	4931 	0.053350
35.79 	0.047648 	4932 	0.046935
35.83 	0.047311 	4946 	0.046482
35.87 	0.054235 	4923 	0.053164
35.91 	0.047899 	4927 	0.047424
35.95 	0.053691 	4917 	0.052857
35.99 	0.048593 	4939 	0.048000
36.03 	0.056646 	4943 	0.055935
36.07 	0.055679 	4939 	0.054612
36.11 	0.051735 	4929 	0.050883
36.15 	0.053250 	4939 	0.052775
36.19 	0.051215 	4940 	0.050859
36.23 	0.052077 	4935 	0.051721
36.27 	0.052183 	4925 	0.051469
36.31 	0.051745 	4928 	0.050913
36.35 	0.053763 	4929 	0.052199
36.39 	0.052428 	4921 	0.051933
36.43 	0.052963 	4928 	0.052368
36.47 	0.054498 	4936 	0.053548
36.51 	0.049666 	4933 	0.049191
36.55 	0.056221 	4927 	0.055389
36.59 	0.054869 	4939 	0.053802
36.63 	0.050294 	4931 	0.048987
36.67 	0.055984 	4930 	0.054776
36.71 	0.056696 	4921 	0.056220
36.75 	0.056837 	4944 	0.056126
36.79 	0.046129 	4921 	0.045534
36.83 	0.053917 	4915 	0.052963
36.87 	0.048948 	4944 	0.048119
36.91 	0.049383 	4941 	0.048790
36.95 	0.050274 	4933 	0.049324
36.99 	0.052482 	4935 	0.051869
37.03 	0.048741 	4924 	0.048384
37.07 	0.048024 	4935 	0.046699
37.11 	0.049037 	4935 	0.047594
37.15 	0.048686 	4909 	0.048209
37.19 	0.047310 	4925 	0.046477
37.23 	0.050427 	4918 	0.050189
37.27 	0.042705 	4894 	0.042227
37.31 	0.045795 	4935 	0.045083
37.35 	0.053868 	4938 	0.052682
37.39 	0.051916 	4931 	0.051204
37.43 	0.046431 	4932 	0.045600
37.47 	0.052343 	4929 	0.051630
37.51 	0.043989 	4933 	0.043277
37.55 	0.044016 	4930 	0.043303
37.59 	0.046999 	4915 	0.046880
37.63 	0.048587 	4919 	0.047515
37.67 	0.050367 	4904 	0.049770
37.71 	0.051735 	4929 	0.050546
37.75 	0.053846 	4940 	0.052660
37.79 	0.051724 	4930 	0.050536
37.83 	0.049390 	4920 	0.048676
37.87 	0.055274 	4939 	0.054444
37.91 	0.056187 	4930 	0.054880
37.95 	0.046738 	4921 	0.046024
37.99 	0.049674 	4912 	0.049078
38.03 	0.049094 	4909 	0.048497
38.07 	0.045427 	4909 	0.044830
38.11 	0.051469 	4935 	0.050163
38.15 	0.050427 	4918 	0.049951
38.19 	0.052738 	4930 	0.051412
38.23 	0.054475 	4938 	0.053645
38.27 	0.051521 	4930 	0.050690
38.31 	0.059062 	4927 	0.057992
38.35 	0.057021 	4928 	0.056308
38.39 	0.059890 	4909 	0.059532
38.43 	0.058381 	4916 	0.057428
38.47 	0.058488 	4907 	0.057294
38.51 	0.057989 	4932 	0.057157
38.55 	0.060981 	4936 	0.059675
38.59 	0.057474 	4924 	0.056522
38.63 	0.063160 	4924 	0.062327
38.67 	0.053271 	4937 	0.052678
38.71 	0.055037 	4924 	0.054085
38.75 	0.057439 	4927 	0.056487
38.79 	0.056546 	4934 	0.055240
38.83 	0.052246 	4919 	0.051532
38.87 	0.045816 	4911 	0.044981
38.91 	0.052009 	4903 	0.050934
38.95 	0.045344 	4918 	0.044986
38.99 	0.045372 	4937 	0.044541
39.03 	0.052088 	4934 	0.051375
39.07 	0.052396 	4924 	0.051683
39.11 	0.048672 	4931 	0.047840
39.15 	0.054934 	4915 	0.054100
39.19 	0.038235 	4917 	0.037639
39.23 	0.050558 	4925 	0.049607
39.27 	0.051120 	4910 	0.050524
39.31 	0.049754 	4884 	0.049035
39.35 	0.045390 	4935 	0.045034
39.39 	0.046257 	4929 	0.045405
39.43 	0.049260 	4933 	0.048191
39.47 	0.050173 	4923 	0.049816
39.51 	0.051381 	4924 	0.050429
39.55 	0.048994 	4919 	0.047922
39.59 	0.046010 	4912 	0.045413
39.63 	0.048151 	4922 	0.047675
39.67 	0.051700 	4913 	0.050607
39.71 	0.054545 	4895 	0.053947
39.75 	0.048498 	4928 	0.047785
39.79 	0.048112 	4926 	0.047280
39.83 	0.044386 	4934 	0.043436
39.87 	0.048731 	4925 	0.048255
39.91 	0.050183 	4922 	0.049350
39.95 	0.048627 	4915 	0.048388
39.99 	0.049270 	4932 	0.048557
40.03 	0.049919 	4928 	0.048849
40.07 	0.045907 	4923 	0.045550
40.11 	0.047803 	4916 	0.047207
40.15 	0.048239 	4913 	0.047405
40.19 	0.050314 	4929 	0.049601
40.23 	0.045215 	4932 	0.044502
40.27 	0.043549 	4937 	0.043311
40.31 	0.051022 	4939 	0.049243
40.35 	0.046554 	4919 	0.045840
40.39 	0.045630 	4931 	0.045155
40.43 	0.047135 	4922 	0.045707
40.47 	0.041480 	4918 	0.041361
40.51 	0.046119 	4922 	0.045881
40.55 	0.046251 	4908 	0.045535
40.59 	0.041726 	4937 	0.041132
40.63 	0.049696 	4930 	0.049458
40.67 	0.049270 	4932 	0.048557
40.71 	0.045215 	4932 	0.044740
40.75 	0.041574 	4931 	0.040980
40.79 	0.049756 	4924 	0.048924
40.83 	0.050933 	4928 	0.049982
40.87 	0.042411 	4928 	0.041935
40.91 	0.050173 	4923 	0.048745
40.95 	0.050275 	4913 	0.048963
40.99 	0.043664 	4924 	0.043069
41.03 	0.046687 	4905 	0.046329
41.07 	0.046450 	4930 	0.046213
41.11 	0.046606 	4935 	0.046012
41.15 	0.047156 	4941 	0.046445
41.19 	0.043611 	4930 	0.042898
41.23 	0.043936 	4939 	0.043106
41.27 	0.051714 	4931 	0.050506
41.31 	0.036489 	4933 	0.036014
41.35 	0.041920 	4938 	0.041683
41.39 	0.052098 	4933 	0.051267
41.43 	0.035301 	4929 	0.034826
41.47 	0.048315 	4926 	0.047720
41.51 	0.045142 	4940 	0.044549
41.55 	0.048835 	4935 	0.047885
41.59 	0.046422 	4933 	0.045947
41.63 	0.040907 	4938 	0.040433
41.67 	0.048785 	4940 	0.048173
41.71 	0.043575 	4934 	0.042625
41.75 	0.044634 	4929 	0.044277
41.79 	0.043689 	4944 	0.043215
41.83 	0.038352 	4928 	0.037996
41.87 	0.045390 	4935 	0.044559
41.91 	0.039100 	4936 	0.038863
41.95 	0.042182 	4931 	0.041707
41.99 	0.044852 	4905 	0.044136
42.03 	0.045353 	4939 	0.044997
42.07 	0.042941 	4937 	0.042110
42.11 	0.034985 	4945 	0.034866
42.15 	0.039692 	4938 	0.039336
42.19 	0.037490 	4908 	0.037012
42.23 	0.042314 	4892 	0.041715
42.27 	0.043906 	4874 	0.043546
42.31 	0.040371 	4855 	0.040129
42.35 	0.040513 	4838 	0.040149
42.39 	0.044546 	4804 	0.043937
42.43 	0.049457 	4792 	0.049091
42.47 	0.043652 	4765 	0.043140
42.51 	0.044065 	4743 	0.043571
42.55 	0.038658 	4708 	0.038533
42.59 	0.040178 	4729 	0.039682
42.63 	0.042897 	4709 	0.042648
42.67 	0.039496 	4684 	0.038996
42.71 	0.042891 	4663 	0.042263
42.75 	0.043751 	4617 	0.043371
42.79 	0.047359 	4582 	0.046720
42.83 	0.039021 	4536 	0.038634
42.87 	0.041120 	4499 	0.040339
42.91 	0.043312 	4456 	0.042392
42.95 	0.046422 	4416 	0.045228
42.99 	0.047662 	4385 	0.047529
43.03 	0.042003 	4333 	0.041733
43.07 	0.040270 	4296 	0.039588
43.11 	0.044183 	4255 	0.043472
43.15 	0.041369 	4206 	0.040952
43.19 	0.039819 	4194 	0.038981
43.23 	0.041406 	4154 	0.040560
43.27 	0.039708 	4105 	0.039708
43.31 	0.036774 	4079 	0.036486
43.35 	0.042163 	4032 	0.041582
43.39 	0.042979 	4002 	0.042539
43.43 	0.038384 	3960 	0.037940
43.47 	0.039531 	3921 	0.039058
43.51 	0.043075 	3877 	0.041690
43.55 	0.043860 	2964 	0.043464
43.59 	0.050401 	1746 	0.049059
43.63 	0.047952 	1001 	0.046782
43.67 	0.037849 	502 	0.037849
43.71 	0.037657 	239 	0.035206
43.75 	0.000000 	16 	0.000000