Folder: Bessy-II-KMC-II-insitu-sin2psi/Example_Data (part 56)

File: 25SC_s1_0022.004.dat
#F C:\frames\spec\25SC_s1_0022.004
#C title =s:22 frm:4 25SC_s1
#C wavelength =0.15406

#S 1  fr_average C:\frames\spec\25SC_s1_0022.004 C:\win32app\speccom\mask.axs chi 0 180 0 360 0.02
#C 2 theta =0.000000 to 180 deg
#C   q   =0.000000 to 81.568 nm^-1
#C  chi  =0.000000 to 360 deg
#C collumns:
#C  1 position (2theta or chi in degrees)
#C  2 average intensity (sum of all counts in the region divided with number of pixels)
#C  3 Number of pixels in region)
#C  4 error (sum of sqrt(intensity) for all pixels divided by number)
#N 4
#L TTh  Int  N_pix  Err
32.99 	0.065574 	61 	0.065574
33.03 	0.054637 	1391 	0.054216
33.07 	0.054146 	2050 	0.053003
33.11 	0.061264 	2579 	0.060356
33.15 	0.056352 	2999 	0.056157
33.19 	0.054458 	3342 	0.053757
33.23 	0.059324 	3523 	0.058161
33.27 	0.058953 	3630 	0.058469
33.31 	0.066667 	3660 	0.065066
33.35 	0.059015 	3694 	0.058539
33.39 	0.056852 	3729 	0.056223
33.43 	0.053975 	3761 	0.053352
33.47 	0.057925 	3798 	0.057154
33.51 	0.053997 	3815 	0.053383
33.55 	0.055165 	3843 	0.054251
33.59 	0.057990 	3880 	0.056480
33.63 	0.060475 	3919 	0.059727
33.67 	0.060445 	3954 	0.059087
33.71 	0.055346 	3975 	0.055199
33.75 	0.055014 	3999 	0.053988
33.79 	0.063351 	4041 	0.062626
33.83 	0.064444 	4050 	0.062564
33.87 	0.066650 	4111 	0.065487
33.91 	0.054230 	4149 	0.052677
33.95 	0.056446 	4181 	0.055885
33.99 	0.056429 	4200 	0.055313
34.03 	0.058907 	4244 	0.058217
34.07 	0.062090 	4268 	0.060443
34.11 	0.056718 	4302 	0.055628
34.15 	0.064650 	4331 	0.063568
34.19 	0.057084 	4362 	0.055663
34.23 	0.060779 	4393 	0.059712
34.27 	0.068069 	4422 	0.066612
34.31 	0.055630 	4458 	0.054054
34.35 	0.057538 	4484 	0.056156
34.39 	0.056864 	4502 	0.055562
34.43 	0.061688 	4539 	0.060655
34.47 	0.061629 	4592 	0.060608
34.51 	0.057099 	4606 	0.056061
34.55 	0.059014 	4643 	0.057857
34.59 	0.063316 	4675 	0.061415
34.63 	0.054777 	4710 	0.053658
34.67 	0.059903 	4741 	0.059388
34.71 	0.061687 	4766 	0.060458
34.75 	0.056572 	4808 	0.056085
34.79 	0.061360 	4824 	0.060267
34.83 	0.060675 	4862 	0.059470
34.87 	0.055464 	4868 	0.054622
34.91 	0.060426 	4882 	0.059226
34.95 	0.061963 	4890 	0.060765
34.99 	0.059424 	4897 	0.058348
35.03 	0.056443 	4943 	0.055614
35.07 	0.057692 	4940 	0.056862
35.11 	0.054983 	4947 	0.053325
35.15 	0.056309 	4937 	0.054748
35.19 	0.058883 	4942 	0.057816
35.23 	0.058443 	4945 	0.057495
35.27 	0.057599 	4948 	0.057007
35.31 	0.053314 	4933 	0.052008
35.35 	0.065561 	4942 	0.064494
35.39 	0.064105 	4945 	0.063394
35.43 	0.053720 	4933 	0.052889
35.47 	0.058406 	4931 	0.057693
35.51 	0.058465 	4926 	0.056900
35.55 	0.055207 	4945 	0.054141
35.59 	0.061881 	4945 	0.060539
35.63 	0.063120 	4943 	0.061934
35.67 	0.059288 	4942 	0.057984
35.71 	0.061778 	4937 	0.060216
35.75 	0.061854 	4931 	0.060903
35.79 	0.054947 	4932 	0.054235
35.83 	0.062070 	4946 	0.060412
35.87 	0.055454 	4923 	0.054502
35.91 	0.058453 	4927 	0.057859
35.95 	0.056742 	4917 	0.056027
35.99 	0.058919 	4939 	0.057970
36.03 	0.057253 	4943 	0.055693
36.07 	0.054262 	4939 	0.053550
36.11 	0.054778 	4929 	0.053708
36.15 	0.063373 	4939 	0.061950
36.19 	0.057895 	4940 	0.057302
36.23 	0.058967 	4935 	0.057384
36.27 	0.057462 	4925 	0.055896
36.31 	0.059253 	4928 	0.058778
36.35 	0.061270 	4929 	0.059963
36.39 	0.056086 	4921 	0.055729
36.43 	0.052557 	4928 	0.052319
36.47 	0.060373 	4936 	0.059423
36.51 	0.053720 	4933 	0.053245
36.55 	0.056830 	4927 	0.055522
36.59 	0.056084 	4939 	0.055373
36.63 	0.059623 	4931 	0.058296
36.67 	0.054564 	4930 	0.053495
36.71 	0.059134 	4921 	0.057468
36.75 	0.056837 	4944 	0.055533
36.79 	0.054664 	4921 	0.054307
36.83 	0.050254 	4915 	0.050016
36.87 	0.057039 	4944 	0.056091
36.91 	0.056264 	4941 	0.055908
36.95 	0.053314 	4933 	0.052364
36.99 	0.056535 	4935 	0.055348
37.03 	0.051584 	4924 	0.051108
37.07 	0.055522 	4935 	0.054909
37.11 	0.053090 	4935 	0.052141
37.15 	0.049705 	4909 	0.048989
37.19 	0.057462 	4925 	0.056391
37.23 	0.054494 	4918 	0.053541
37.27 	0.056396 	4894 	0.055199
37.31 	0.061196 	4935 	0.060127
37.35 	0.057716 	4938 	0.056411
37.39 	0.052322 	4931 	0.051728
37.43 	0.056367 	4932 	0.055891
37.47 	0.056807 	4929 	0.055618
37.51 	0.053720 	4933 	0.052770
37.55 	0.057201 	4930 	0.056488
37.59 	0.051272 	4915 	0.050299
37.63 	0.053263 	4919 	0.052548
37.67 	0.052610 	4904 	0.051535
37.71 	0.051126 	4929 	0.050294
37.75 	0.056883 	4940 	0.055934
37.79 	0.053550 	4930 	0.052599
37.83 	0.056098 	4920 	0.055621
37.87 	0.049605 	4939 	0.048775
37.91 	0.052130 	4930 	0.051298
37.95 	0.059744 	4921 	0.058435
37.99 	0.051710 	4912 	0.050756
38.03 	0.054390 	4909 	0.052719
38.07 	0.056631 	4909 	0.055437
38.11 	0.054914 	4935 	0.054083
38.15 	0.052257 	4918 	0.051304
38.19 	0.057606 	4930 	0.056181
38.23 	0.062981 	4938 	0.061557
38.27 	0.063083 	4930 	0.061657
38.31 	0.068602 	4927 	0.067532
38.35 	0.061485 	4928 	0.060297
38.39 	0.072316 	4909 	0.069890
38.43 	0.068552 	4916 	0.066745
38.47 	0.067047 	4907 	0.065495
38.51 	0.069343 	4932 	0.068037
38.55 	0.060778 	4936 	0.060185
38.59 	0.059301 	4924 	0.057874
38.63 	0.059911 	4924 	0.059316
38.67 	0.055094 	4937 	0.054738
38.71 	0.054021 	4924 	0.052693
38.75 	0.057642 	4927 	0.056690
38.79 	0.051480 	4934 	0.050411
38.83 	0.059768 	4919 	0.059054
38.87 	0.051313 	4911 	0.050598
38.91 	0.051805 	4903 	0.051088
38.95 	0.052867 	4918 	0.052152
38.99 	0.054487 	4937 	0.053419
39.03 	0.047629 	4934 	0.046916
39.07 	0.056864 	4924 	0.056151
39.11 	0.048672 	4931 	0.048078
39.15 	0.054323 	4915 	0.053728
39.19 	0.051658 	4917 	0.050566
39.23 	0.053198 	4925 	0.052603
39.27 	0.054990 	4910 	0.053916
39.31 	0.056716 	4884 	0.055636
39.35 	0.052280 	4935 	0.051449
39.39 	0.058633 	4929 	0.057781
39.43 	0.056963 	4933 	0.056370
39.47 	0.053220 	4923 	0.052248
39.51 	0.054021 	4924 	0.053069
39.55 	0.056516 	4919 	0.055682
39.59 	0.053746 	4912 	0.052792
39.63 	0.058106 	4922 	0.056916
39.67 	0.058620 	4913 	0.056593
39.71 	0.050051 	4895 	0.049094
39.75 	0.060471 	4928 	0.058925
39.79 	0.056029 	4926 	0.054721
39.83 	0.056546 	4934 	0.055834
39.87 	0.052995 	4925 	0.052638
39.91 	0.059732 	4922 	0.058185
39.95 	0.060427 	4915 	0.059116
39.99 	0.053528 	4932 	0.052578
40.03 	0.053774 	4928 	0.053180
40.07 	0.058298 	4923 	0.056989
40.11 	0.052482 	4916 	0.051171
40.15 	0.051903 	4913 	0.050472
40.19 	0.054169 	4929 	0.053932
40.23 	0.051906 	4932 	0.051193
40.27 	0.054892 	4937 	0.054417
40.31 	0.056489 	4939 	0.056133
40.35 	0.056719 	4919 	0.056362
40.39 	0.053742 	4931 	0.053266
40.43 	0.052418 	4922 	0.051684
40.47 	0.055714 	4918 	0.054999
40.51 	0.053434 	4922 	0.052224
40.55 	0.047881 	4908 	0.047046
40.59 	0.049625 	4937 	0.049151
40.63 	0.054158 	4930 	0.053445
40.67 	0.048662 	4932 	0.048305
40.71 	0.051500 	4932 	0.050550
40.75 	0.052525 	4931 	0.051456
40.79 	0.047929 	4924 	0.046838
40.83 	0.056818 	4928 	0.056343
40.87 	0.054586 	4928 	0.053278
40.91 	0.052204 	4923 	0.051728
40.95 	0.054142 	4913 	0.053307
40.99 	0.048335 	4924 	0.047383
41.03 	0.054027 	4905 	0.053071
41.07 	0.049696 	4930 	0.048983
41.11 	0.053698 	4935 	0.052986
41.15 	0.047156 	4941 	0.046682
41.19 	0.050101 	4930 	0.049032
41.23 	0.051832 	4939 	0.051121
41.27 	0.047252 	4931 	0.046896
41.31 	0.050882 	4933 	0.050169
41.35 	0.051438 	4938 	0.050133
41.39 	0.046422 	4933 	0.045710
41.43 	0.051532 	4929 	0.050700
41.47 	0.053390 	4926 	0.052796
41.51 	0.051822 	4940 	0.050972
41.55 	0.048430 	4935 	0.047717
41.59 	0.049666 	4933 	0.049191
41.63 	0.050223 	4938 	0.049392
41.67 	0.051417 	4940 	0.050212
41.71 	0.041751 	4934 	0.041395
41.75 	0.053358 	4929 	0.052645
41.79 	0.044296 	4944 	0.043467
41.83 	0.046469 	4928 	0.045994
41.87 	0.048227 	4935 	0.047277
41.91 	0.047002 	4936 	0.046507
41.95 	0.046238 	4931 	0.045763
41.99 	0.046075 	4905 	0.045598
42.03 	0.048390 	4939 	0.047797
42.07 	0.043954 	4937 	0.043123
42.11 	0.045298 	4945 	0.044588
42.15 	0.041515 	4938 	0.040922
42.19 	0.048492 	4908 	0.047776
42.23 	0.048855 	4892 	0.047618
42.27 	0.044932 	4874 	0.044692
42.31 	0.043048 	4855 	0.042566
42.35 	0.045680 	4838 	0.045196
42.39 	0.043922 	4804 	0.043312
42.43 	0.046119 	4792 	0.045752
42.47 	0.046380 	4765 	0.045396
42.51 	0.049125 	4743 	0.048137
42.55 	0.047579 	4708 	0.046459
42.59 	0.046099 	4729 	0.045603
42.63 	0.042684 	4709 	0.041938
42.67 	0.046328 	4684 	0.045828
42.71 	0.040532 	4663 	0.040406
42.75 	0.046784 	4617 	0.046022
42.79 	0.046923 	4582 	0.046411
42.83 	0.048280 	4536 	0.047506
42.87 	0.041120 	4499 	0.040860
42.91 	0.047576 	4456 	0.047313
42.95 	0.046875 	4416 	0.045946
42.99 	0.048575 	4385 	0.047907
43.03 	0.042234 	4333 	0.041693
43.07 	0.050047 	4296 	0.049228
43.11 	0.045593 	4255 	0.044630
43.15 	0.046600 	4206 	0.045904
43.19 	0.045780 	4194 	0.045640
43.23 	0.047906 	4154 	0.047201
43.27 	0.043118 	4105 	0.042262
43.31 	0.046580 	4079 	0.045718
43.35 	0.046379 	4032 	0.045943
43.39 	0.046977 	4002 	0.046684
43.43 	0.048990 	3960 	0.047954
43.47 	0.049222 	3921 	0.048475
43.51 	0.045138 	3877 	0.044685
43.55 	0.051619 	2964 	0.050829
43.59 	0.047537 	1746 	0.045860
43.63 	0.039960 	1001 	0.039375
43.67 	0.035857 	502 	0.034690
43.71 	0.041841 	239 	0.041841
43.75 	0.000000 	16 	0.000000

File: 25SC_s1_0023.000.dat
#F C:\frames\spec\25SC_s1_0023.000
#C title =s:23 frm:0 25SC_s1
#C wavelength =0.15406

#S 1  fr_average C:\frames\spec\25SC_s1_0023.000 C:\win32app\speccom\mask.axs chi 0 180 0 360 0.02
#C 2 theta =0.000000 to 180 deg
#C   q   =0.000000 to 81.568 nm^-1
#C  chi  =0.000000 to 360 deg
#C collumns:
#C  1 position (2theta or chi in degrees)
#C  2 average intensity (sum of all counts in the region divided with number of pixels)
#C  3 Number of pixels in region)
#C  4 error (sum of sqrt(intensity) for all pixels divided by number)
#N 4
#L TTh  Int  N_pix  Err
32.99 	0.016393 	61 	0.016393
33.03 	0.061826 	1391 	0.060984
33.07 	0.063902 	2050 	0.061902
33.11 	0.062815 	2579 	0.061225
33.15 	0.065022 	2999 	0.063850
33.19 	0.066727 	3342 	0.065149
33.23 	0.057054 	3523 	0.056222
33.27 	0.064187 	3630 	0.062896
33.31 	0.061202 	3660 	0.060562
33.35 	0.057390 	3694 	0.056597
33.39 	0.059265 	3729 	0.058323
33.43 	0.057166 	3761 	0.056075
33.47 	0.058189 	3798 	0.057726
33.51 	0.066055 	3815 	0.064187
33.55 	0.054905 	3843 	0.054600
33.59 	0.062113 	3880 	0.061007
33.63 	0.066854 	3919 	0.066106
33.67 	0.056146 	3954 	0.055109
33.71 	0.058113 	3975 	0.056934
33.75 	0.055264 	3999 	0.054214
33.79 	0.060134 	4041 	0.058829
33.83 	0.060000 	4050 	0.058988
33.87 	0.062029 	4111 	0.061459
33.91 	0.057845 	4149 	0.057281
33.95 	0.056924 	4181 	0.055943
33.99 	0.065000 	4200 	0.063884
34.03 	0.053723 	4244 	0.053033
34.07 	0.053421 	4268 	0.052597
34.11 	0.056020 	4302 	0.055203
34.15 	0.057723 	4331 	0.057453
34.19 	0.060752 	4362 	0.059678
34.23 	0.063055 	4393 	0.061988
34.27 	0.054726 	4422 	0.053667
34.31 	0.058322 	4458 	0.057534
34.35 	0.051517 	4484 	0.050863
34.39 	0.053088 	4502 	0.052437
34.43 	0.056620 	4539 	0.055459
34.47 	0.054007 	4592 	0.052583
34.51 	0.053843 	4606 	0.053588
34.55 	0.057937 	4643 	0.056675
34.59 	0.058610 	4675 	0.057231
34.63 	0.057749 	4710 	0.057252
34.67 	0.058426 	4741 	0.057438
34.71 	0.058120 	4766 	0.057137
34.75 	0.057196 	4808 	0.056343
34.79 	0.062396 	4824 	0.060646
34.83 	0.050391 	4862 	0.050029
34.87 	0.058546 	4868 	0.057703
34.91 	0.056944 	4882 	0.056224
34.95 	0.057873 	4890 	0.056675
34.99 	0.054115 	4897 	0.053517
35.03 	0.051790 	4943 	0.050961
35.07 	0.056883 	4940 	0.055815
35.11 	0.057004 	4947 	0.055820
35.15 	0.054487 	4937 	0.054012
35.19 	0.057062 	4942 	0.055719
35.23 	0.058645 	4945 	0.058171
35.27 	0.055578 	4948 	0.054986
35.31 	0.058585 	4933 	0.057734
35.35 	0.058681 	4942 	0.058562
35.39 	0.060465 	4945 	0.058807
35.43 	0.058180 	4933 	0.057210
35.47 	0.063070 	4931 	0.061764
35.51 	0.056638 	4926 	0.055925
35.55 	0.057836 	4945 	0.056533
35.59 	0.063296 	4945 	0.061993
35.63 	0.060692 	4943 	0.059625
35.67 	0.060907 	4942 	0.059484
35.71 	0.055702 	4937 	0.055227
35.75 	0.058203 	4931 	0.057134
35.79 	0.051095 	4932 	0.050382
35.83 	0.054994 	4946 	0.054165
35.87 	0.054845 	4923 	0.054607
35.91 	0.053176 	4927 	0.052582
35.95 	0.058979 	4917 	0.058503
35.99 	0.057502 	4939 	0.056908
36.03 	0.061703 	4943 	0.060755
36.07 	0.053047 	4939 	0.052079
36.11 	0.059850 	4929 	0.058899
36.15 	0.057299 	4939 	0.056469
36.19 	0.058907 	4940 	0.058077
36.23 	0.058561 	4935 	0.057236
36.27 	0.058477 	4925 	0.057764
36.31 	0.061080 	4928 	0.059653
36.35 	0.059444 	4929 	0.057642
36.39 	0.058321 	4921 	0.057369
36.43 	0.059456 	4928 	0.058267
36.47 	0.061386 	4936 	0.060199
36.51 	0.061423 	4933 	0.060117
36.55 	0.060280 	4927 	0.058953
36.59 	0.060336 	4939 	0.059249
36.63 	0.062665 	4931 	0.061833
36.67 	0.058824 	4930 	0.057853
36.71 	0.054664 	4921 	0.053592
36.75 	0.052589 	4944 	0.051760
36.79 	0.053851 	4921 	0.053137
36.83 	0.059207 	4915 	0.058372
36.87 	0.060882 	4944 	0.060171
36.91 	0.062943 	4941 	0.061520
36.95 	0.061423 	4933 	0.060354
36.99 	0.060790 	4935 	0.059841
37.03 	0.057271 	4924 	0.056914
37.07 	0.049848 	4935 	0.049373
37.11 	0.056940 	4935 	0.056109
37.15 	0.059279 	4909 	0.058324
37.19 	0.059289 	4925 	0.058576
37.23 	0.061000 	4918 	0.060286
37.27 	0.057417 	4894 	0.056220
37.31 	0.059574 	4935 	0.058744
37.35 	0.060753 	4938 	0.060042
37.39 	0.054958 	4931 	0.054364
37.43 	0.057178 	4932 	0.055852
37.47 	0.057821 	4929 	0.056613
37.51 	0.059193 	4933 	0.058362
37.55 	0.057606 	4930 	0.056299
37.59 	0.054730 	4915 	0.053419
37.63 	0.057735 	4919 	0.056783
37.67 	0.058728 	4904 	0.057633
37.71 	0.051938 	4929 	0.051462
37.75 	0.056883 	4940 	0.055934
37.79 	0.059229 	4930 	0.057685
37.83 	0.059146 	4920 	0.057956
37.87 	0.057502 	4939 	0.056553
37.91 	0.052941 	4930 	0.051515
37.95 	0.061166 	4921 	0.060095
37.99 	0.058428 	4912 	0.057117
38.03 	0.059279 	4909 	0.058563
38.07 	0.065798 	4909 	0.064823
38.11 	0.047619 	4935 	0.047263
38.15 	0.062830 	4918 	0.061639
38.19 	0.056187 	4930 	0.055593
38.23 	0.063386 	4938 	0.062556
38.27 	0.059026 	4930 	0.058313
38.31 	0.067587 	4927 	0.066041
38.35 	0.064123 	4928 	0.063410
38.39 	0.068242 	4909 	0.067407
38.43 	0.067128 	4916 	0.066174
38.47 	0.080293 	4907 	0.078503
38.51 	0.079886 	4932 	0.078105
38.55 	0.075162 	4936 	0.073975
38.59 	0.080219 	4924 	0.077939
38.63 	0.069862 	4924 	0.068434
38.67 	0.077780 	4937 	0.076238
38.71 	0.079813 	4924 	0.077434
38.75 	0.069008 	4927 	0.067799
38.79 	0.074179 	4934 	0.072992
38.83 	0.061801 	4919 	0.060848
38.87 	0.065974 	4911 	0.064782
38.91 	0.061187 	4903 	0.060470
38.95 	0.058764 	4918 	0.058049
38.99 	0.053271 	4937 	0.052322
39.03 	0.055938 	4934 	0.054989
39.07 	0.052193 	4924 	0.051717
39.11 	0.048469 	4931 	0.047875
39.15 	0.045575 	4915 	0.044383
39.19 	0.050031 	4917 	0.049316
39.23 	0.047919 	4925 	0.046491
39.27 	0.050102 	4910 	0.049147
39.31 	0.049140 	4884 	0.048061
39.35 	0.048227 	4935 	0.047752
39.39 	0.045445 	4929 	0.044732
39.43 	0.043584 	4933 	0.043465
39.47 	0.048548 	4923 	0.048310
39.51 	0.047522 	4924 	0.047284
39.55 	0.043911 	4919 	0.043058
39.59 	0.044788 	4912 	0.044550
39.63 	0.038399 	4922 	0.038161
39.67 	0.042540 	4913 	0.041944
39.71 	0.043105 	4895 	0.042627
39.75 	0.044643 	4928 	0.044286
39.79 	0.048518 	4926 	0.047923
39.83 	0.044791 	4934 	0.044316
39.87 	0.051371 	4925 	0.050637
39.91 	0.042462 	4922 	0.041986
39.95 	0.044354 	4915 	0.043758
39.99 	0.041768 	4932 	0.041293
40.03 	0.042208 	4928 	0.041970
40.07 	0.044079 	4923 	0.043603
40.11 	0.044345 	4916 	0.043511
40.15 	0.042744 	4913 	0.042267
40.19 	0.047068 	4929 	0.046355
40.23 	0.044201 	4932 	0.043845
40.27 	0.043751 	4937 	0.043395
40.31 	0.044543 	4939 	0.043950
40.35 	0.042488 	4919 	0.042250
40.39 	0.042993 	4931 	0.042281
40.43 	0.042462 	4922 	0.042224
40.47 	0.044327 	4918 	0.043493
40.51 	0.045307 	4922 	0.044831
40.55 	0.035045 	4908 	0.034806
40.59 	0.039093 	4937 	0.038143
40.63 	0.041785 	4930 	0.041191
40.67 	0.043998 	4932 	0.043405
40.71 	0.041565 	4932 	0.041209
40.75 	0.042385 	4931 	0.041553
40.79 	0.041836 	4924 	0.041003
40.83 	0.040381 	4928 	0.040263
40.87 	0.040990 	4928 	0.040396
40.91 	0.042454 	4923 	0.042097
40.95 	0.045593 	4913 	0.045116
40.99 	0.041836 	4924 	0.041479
41.03 	0.039348 	4905 	0.038611
41.07 	0.039554 	4930 	0.039197
41.11 	0.038501 	4935 	0.038501
41.15 	0.044323 	4941 	0.043612
41.19 	0.040568 	4930 	0.039736
41.23 	0.040696 	4939 	0.039985
41.27 	0.046846 	4931 	0.046253
41.31 	0.037705 	4933 	0.036637
41.35 	0.042730 	4938 	0.042018
41.39 	0.041557 	4933 	0.041438
41.43 	0.044431 	4929 	0.044193
41.47 	0.035932 	4926 	0.035932
41.51 	0.048988 	4940 	0.048395
41.55 	0.036879 	4935 	0.036523
41.59 	0.041354 	4933 	0.040998
41.63 	0.038072 	4938 	0.037835
41.67 	0.040081 	4940 	0.039725
41.71 	0.037698 	4934 	0.037104
41.75 	0.039156 	4929 	0.038562
41.79 	0.040049 	4944 	0.039812
41.83 	0.038149 	4928 	0.038149
41.87 	0.047619 	4935 	0.046907
41.91 	0.046191 	4936 	0.046073
41.95 	0.040763 	4931 	0.040287
41.99 	0.035066 	4905 	0.034827
42.03 	0.042316 	4939 	0.041605
42.07 	0.039093 	4937 	0.038381
42.11 	0.038625 	4945 	0.037914
42.15 	0.038072 	4938 	0.037242
42.19 	0.040546 	4908 	0.040188
42.23 	0.039861 	4892 	0.039023
42.27 	0.034879 	4874 	0.034038
42.31 	0.042430 	4855 	0.042310
42.35 	0.044233 	4838 	0.043628
42.39 	0.038718 	4804 	0.037742
42.43 	0.040693 	4792 	0.040082
42.47 	0.038405 	4765 	0.038036
42.51 	0.043222 	4743 	0.042728
42.55 	0.032923 	4708 	0.032549
42.59 	0.030662 	4729 	0.030414
42.63 	0.044383 	4709 	0.043512
42.67 	0.034372 	4684 	0.033997
42.71 	0.035599 	4663 	0.035097
42.75 	0.042452 	4617 	0.041944
42.79 	0.034701 	4582 	0.034573
42.83 	0.040123 	4536 	0.039478
42.87 	0.042454 	4499 	0.041803
42.91 	0.035233 	4456 	0.034839
42.95 	0.039402 	4416 	0.039004
42.99 	0.037856 	4385 	0.037188
43.03 	0.039003 	4333 	0.038192
43.07 	0.038873 	4296 	0.038737
43.11 	0.043243 	4255 	0.042693
43.15 	0.044460 	4206 	0.043602
43.19 	0.036719 	4194 	0.036300
43.23 	0.037554 	4154 	0.036990
43.27 	0.044336 	4105 	0.043599
43.31 	0.035793 	4079 	0.034931
43.35 	0.036458 	4032 	0.035732
43.39 	0.036982 	4002 	0.035957
43.43 	0.038889 	3960 	0.038445
43.47 	0.037490 	3921 	0.037192
43.51 	0.033015 	3877 	0.032864
43.55 	0.034413 	2964 	0.033820
43.59 	0.038373 	1746 	0.038373
43.63 	0.031968 	1001 	0.031968
43.67 	0.029880 	502 	0.028714
43.71 	0.020921 	239 	0.020921
43.75 	0.000000 	16 	0.000000