Folder: Bessy-II-KMC-II-insitu-sin2psi/Example_Data (part 58)

File: 25SC_s1_0023.003.dat
#F C:\frames\spec\25SC_s1_0023.003
#C title =s:23 frm:3 25SC_s1
#C wavelength =0.15406

#S 1  fr_average C:\frames\spec\25SC_s1_0023.003 C:\win32app\speccom\mask.axs chi 0 180 0 360 0.02
#C 2 theta =0.000000 to 180 deg
#C   q   =0.000000 to 81.568 nm^-1
#C  chi  =0.000000 to 360 deg
#C collumns:
#C  1 position (2theta or chi in degrees)
#C  2 average intensity (sum of all counts in the region divided with number of pixels)
#C  3 Number of pixels in region)
#C  4 error (sum of sqrt(intensity) for all pixels divided by number)
#N 4
#L TTh  Int  N_pix  Err
32.99 	0.016393 	61 	0.016393
33.03 	0.060388 	1391 	0.057861
33.07 	0.065854 	2050 	0.064996
33.11 	0.061652 	2579 	0.060062
33.15 	0.065689 	2999 	0.064517
33.19 	0.060443 	3342 	0.059216
33.23 	0.054499 	3523 	0.053668
33.27 	0.056749 	3630 	0.055297
33.31 	0.058197 	3660 	0.056756
33.35 	0.050081 	3694 	0.049288
33.39 	0.057656 	3729 	0.057185
33.43 	0.056634 	3761 	0.056011
33.47 	0.053976 	3798 	0.053359
33.51 	0.058191 	3815 	0.057117
33.55 	0.056727 	3843 	0.056117
33.59 	0.059021 	3880 	0.057813
33.63 	0.058944 	3919 	0.058047
33.67 	0.062468 	3954 	0.061876
33.71 	0.055346 	3975 	0.054756
33.75 	0.069267 	3999 	0.068388
33.79 	0.064341 	4041 	0.063616
33.83 	0.051605 	4050 	0.050303
33.87 	0.056920 	4111 	0.056350
33.91 	0.057604 	4149 	0.056616
33.95 	0.057403 	4181 	0.056842
33.99 	0.055238 	4200 	0.054262
34.03 	0.057493 	4244 	0.055814
34.07 	0.060918 	4268 	0.059798
34.11 	0.057880 	4302 	0.057063
34.15 	0.056800 	4331 	0.055312
34.19 	0.060293 	4362 	0.059085
34.23 	0.058957 	4393 	0.058424
34.27 	0.058118 	4422 	0.057324
34.31 	0.053836 	4458 	0.053179
34.35 	0.055977 	4484 	0.054910
34.39 	0.054198 	4502 	0.053678
34.43 	0.064552 	4539 	0.063132
34.47 	0.060105 	4592 	0.059191
34.51 	0.057534 	4606 	0.056262
34.55 	0.052337 	4643 	0.051706
34.59 	0.054545 	4675 	0.053543
34.63 	0.058811 	4710 	0.057940
34.67 	0.059903 	4741 	0.058276
34.71 	0.060848 	4766 	0.059987
34.75 	0.060108 	4808 	0.058890
34.79 	0.063018 	4824 	0.061420
34.83 	0.060469 	4862 	0.059606
34.87 	0.058340 	4868 	0.056636
34.91 	0.053667 	4882 	0.052947
34.95 	0.059305 	4890 	0.057987
34.99 	0.055544 	4897 	0.054946
35.03 	0.059478 	4943 	0.058886
35.07 	0.059514 	4940 	0.057973
35.11 	0.060643 	4947 	0.059577
35.15 	0.060158 	4937 	0.058853
35.19 	0.054431 	4942 	0.054076
35.23 	0.055207 	4945 	0.054260
35.27 	0.061439 	4948 	0.060255
35.31 	0.059193 	4933 	0.057630
35.35 	0.059288 	4942 	0.058339
35.39 	0.051769 	4945 	0.051177
35.43 	0.057774 	4933 	0.056943
35.47 	0.053336 	4931 	0.052504
35.51 	0.056232 	4926 	0.055142
35.55 	0.059050 	4945 	0.058102
35.59 	0.054398 	4945 	0.053095
35.63 	0.051993 	4943 	0.051045
35.67 	0.059288 	4942 	0.058577
35.71 	0.055904 	4937 	0.054955
35.75 	0.056784 	4931 	0.055833
35.79 	0.062652 	4932 	0.061346
35.83 	0.053579 	4946 	0.052868
35.87 	0.060126 	4923 	0.058817
35.91 	0.062513 	4927 	0.061680
35.95 	0.062436 	4917 	0.061841
35.99 	0.055679 	4939 	0.054968
36.03 	0.054825 	4943 	0.053521
36.07 	0.057704 	4939 	0.056024
36.11 	0.052952 	4929 	0.052239
36.15 	0.057299 	4939 	0.056232
36.19 	0.056073 	4940 	0.055124
36.23 	0.053293 	4935 	0.052818
36.27 	0.055838 	4925 	0.054866
36.31 	0.057427 	4928 	0.056476
36.35 	0.054981 	4929 	0.054030
36.39 	0.053851 	4921 	0.053494
36.43 	0.058847 	4928 	0.057659
36.47 	0.062399 	4936 	0.061449
36.51 	0.055950 	4933 	0.054881
36.55 	0.052365 	4927 	0.050938
36.59 	0.055072 	4939 	0.054004
36.63 	0.049280 	4931 	0.048924
36.67 	0.054767 	4930 	0.053579
36.71 	0.049177 	4921 	0.049058
36.75 	0.052184 	4944 	0.051237
36.79 	0.052835 	4921 	0.052478
36.83 	0.048627 	4915 	0.048150
36.87 	0.053196 	4944 	0.052248
36.91 	0.058288 	4941 	0.057458
36.95 	0.052098 	4933 	0.051029
36.99 	0.052685 	4935 	0.052329
37.03 	0.047319 	4924 	0.046724
37.07 	0.053090 	4935 	0.052497
37.11 	0.045390 	4935 	0.044440
37.15 	0.050927 	4909 	0.050072
37.19 	0.049949 	4925 	0.049711
37.23 	0.048394 	4918 	0.047441
37.27 	0.055170 	4894 	0.053853
37.31 	0.058967 	4935 	0.058373
37.35 	0.057716 	4938 	0.056510
37.39 	0.051916 	4931 	0.051441
37.43 	0.050487 	4932 	0.049180
37.47 	0.049503 	4929 	0.048671
37.51 	0.048449 	4933 	0.047737
37.55 	0.049696 	4930 	0.049458
37.59 	0.051475 	4915 	0.050760
37.63 	0.054279 	4919 	0.053208
37.67 	0.049755 	4904 	0.049516
37.71 	0.047271 	4929 	0.046439
37.75 	0.050405 	4940 	0.049318
37.79 	0.052333 	4930 	0.051857
37.83 	0.047561 	4920 	0.046351
37.87 	0.055679 	4939 	0.054612
37.91 	0.054158 	4930 	0.053445
37.95 	0.054867 	4921 	0.053677
37.99 	0.049471 	4912 	0.048874
38.03 	0.052149 	4909 	0.051672
38.07 	0.055205 	4909 	0.054131
38.11 	0.059777 	4935 	0.058452
38.15 	0.055510 	4918 	0.054796
38.19 	0.053550 	4930 	0.053193
38.23 	0.054475 	4938 	0.053526
38.27 	0.053347 	4930 	0.052634
38.31 	0.056627 	4927 	0.055557
38.35 	0.056615 	4928 	0.055189
38.39 	0.052964 	4909 	0.052129
38.43 	0.058991 	4916 	0.057442
38.47 	0.064194 	4907 	0.063239
38.51 	0.062449 	4932 	0.061024
38.55 	0.058752 	4936 	0.057803
38.59 	0.056661 	4924 	0.055115
38.63 	0.057271 	4924 	0.056418
38.67 	0.052461 	4937 	0.051986
38.71 	0.053006 	4924 	0.052411
38.75 	0.052973 	4927 	0.052617
38.79 	0.050061 	4934 	0.049111
38.83 	0.052246 	4919 	0.052008
38.87 	0.050295 	4911 	0.049818
38.91 	0.052213 	4903 	0.051616
38.95 	0.048394 	4918 	0.048036
38.99 	0.050435 	4937 	0.049842
39.03 	0.047223 	4934 	0.046867
39.07 	0.042242 	4924 	0.041647
39.11 	0.049686 	4931 	0.049329
39.15 	0.050865 	4915 	0.049911
39.19 	0.047387 	4917 	0.046910
39.23 	0.049543 	4925 	0.048829
39.27 	0.041344 	4910 	0.040986
39.31 	0.045250 	4884 	0.044530
39.35 	0.053901 	4935 	0.053189
39.39 	0.046460 	4929 	0.045747
39.43 	0.046827 	4933 	0.045759
39.47 	0.048548 	4923 	0.047814
39.51 	0.049756 	4924 	0.049043
39.55 	0.042082 	4919 	0.041724
39.59 	0.052932 	4912 	0.052216
39.63 	0.048964 	4922 	0.048131
39.67 	0.040912 	4913 	0.040316
39.71 	0.053524 	4895 	0.052686
39.75 	0.050528 	4928 	0.049458
39.79 	0.044255 	4926 	0.043541
39.83 	0.048237 	4934 	0.047524
39.87 	0.050152 	4925 	0.048705
39.91 	0.046526 	4922 	0.045931
39.95 	0.052696 	4915 	0.052219
39.99 	0.041363 	4932 	0.040650
40.03 	0.048498 	4928 	0.047785
40.07 	0.047126 	4923 	0.046174
40.11 	0.048413 	4916 	0.048056
40.15 	0.049257 	4913 	0.048542
40.19 	0.045242 	4929 	0.044648
40.23 	0.055150 	4932 	0.054081
40.27 	0.045777 	4937 	0.044689
40.31 	0.044341 	4939 	0.043699
40.35 	0.045741 	4919 	0.045384
40.39 	0.040965 	4931 	0.040490
40.43 	0.050386 	4922 	0.049196
40.47 	0.042904 	4918 	0.041931
40.51 	0.044088 	4922 	0.043612
40.55 	0.042584 	4908 	0.042106
40.59 	0.042131 	4937 	0.041656
40.63 	0.051318 	4930 	0.050487
40.67 	0.045215 	4932 	0.044502
40.71 	0.040957 	4932 	0.040719
40.75 	0.052930 	4931 	0.052099
40.79 	0.040211 	4924 	0.039497
40.83 	0.044440 	4928 	0.043569
40.87 	0.044846 	4928 	0.044608
40.91 	0.047126 	4923 	0.046650
40.95 	0.046000 	4913 	0.045643
40.99 	0.043867 	4924 	0.043272
41.03 	0.046279 	4905 	0.045802
41.07 	0.045436 	4930 	0.044723
41.11 	0.040729 	4935 	0.040255
41.15 	0.045133 	4941 	0.044777
41.19 	0.044828 	4930 	0.044471
41.23 	0.045758 	4939 	0.045165
41.27 	0.045021 	4931 	0.044546
41.31 	0.046219 	4933 	0.045626
41.35 	0.043337 	4938 	0.042744
41.39 	0.048449 	4933 	0.047499
41.43 	0.045851 	4929 	0.045376
41.47 	0.042225 	4926 	0.041630
41.51 	0.036437 	4940 	0.035844
41.55 	0.045187 	4935 	0.044950
41.59 	0.041760 	4933 	0.041047
41.63 	0.041920 	4938 	0.041327
41.67 	0.036640 	4940 	0.036165
41.71 	0.041143 	4934 	0.040055
41.75 	0.045445 	4929 	0.044732
41.79 	0.044094 	4944 	0.043501
41.83 	0.044643 	4928 	0.044524
41.87 	0.044985 	4935 	0.044391
41.91 	0.043355 	4936 	0.042524
41.95 	0.043196 	4931 	0.042365
41.99 	0.048726 	4905 	0.048129
42.03 	0.036647 	4939 	0.036410
42.07 	0.045169 	4937 	0.044932
42.11 	0.044894 	4945 	0.044302
42.15 	0.032807 	4938 	0.032332
42.19 	0.041565 	4908 	0.040849
42.23 	0.046607 	4892 	0.045888
42.27 	0.043291 	4874 	0.042810
42.31 	0.043666 	4855 	0.043546
42.35 	0.039893 	4838 	0.039408
42.39 	0.044963 	4804 	0.044719
42.43 	0.047162 	4792 	0.046062
42.47 	0.037985 	4765 	0.037125
42.51 	0.038583 	4743 	0.038583
42.55 	0.040357 	4708 	0.039984
42.59 	0.041235 	4729 	0.040863
42.63 	0.044171 	4709 	0.044046
42.67 	0.041418 	4684 	0.041167
42.71 	0.034313 	4663 	0.033936
42.75 	0.043751 	4617 	0.043371
42.79 	0.047577 	4582 	0.047066
42.83 	0.039903 	4536 	0.039257
42.87 	0.041787 	4499 	0.041266
42.91 	0.037478 	4456 	0.037346
42.95 	0.035326 	4416 	0.035061
42.99 	0.040365 	4385 	0.040098
43.03 	0.043619 	4333 	0.042808
43.07 	0.041899 	4296 	0.041354
43.11 	0.042538 	4255 	0.041850
43.15 	0.041369 	4206 	0.040534
43.19 	0.039342 	4194 	0.038644
43.23 	0.036351 	4154 	0.035786
43.27 	0.040195 	4105 	0.039767
43.31 	0.038000 	4079 	0.037545
43.35 	0.050843 	4032 	0.050262
43.39 	0.039480 	4002 	0.039334
43.43 	0.042424 	3960 	0.041980
43.47 	0.039021 	3921 	0.038572
43.51 	0.042559 	3877 	0.042256
43.55 	0.036775 	2964 	0.035786
43.59 	0.039519 	1746 	0.039183
43.63 	0.047952 	1001 	0.046782
43.67 	0.039841 	502 	0.039841
43.71 	0.029289 	239 	0.029289
43.75 	0.000000 	16 	0.000000

File: 25SC_s1_0023.004.dat
#F C:\frames\spec\25SC_s1_0023.004
#C title =s:23 frm:4 25SC_s1
#C wavelength =0.15406

#S 1  fr_average C:\frames\spec\25SC_s1_0023.004 C:\win32app\speccom\mask.axs chi 0 180 0 360 0.02
#C 2 theta =0.000000 to 180 deg
#C   q   =0.000000 to 81.568 nm^-1
#C  chi  =0.000000 to 360 deg
#C collumns:
#C  1 position (2theta or chi in degrees)
#C  2 average intensity (sum of all counts in the region divided with number of pixels)
#C  3 Number of pixels in region)
#C  4 error (sum of sqrt(intensity) for all pixels divided by number)
#N 4
#L TTh  Int  N_pix  Err
32.99 	0.065574 	61 	0.065574
33.03 	0.062545 	1391 	0.061703
33.07 	0.055610 	2050 	0.053562
33.11 	0.072121 	2579 	0.069585
33.15 	0.057352 	2999 	0.056766
33.19 	0.059844 	3342 	0.058968
33.23 	0.055351 	3523 	0.053522
33.27 	0.049587 	3630 	0.048941
33.31 	0.052459 	3660 	0.051499
33.35 	0.056849 	3694 	0.056056
33.39 	0.058193 	3729 	0.057381
33.43 	0.061154 	3761 	0.060531
33.47 	0.055556 	3798 	0.054784
33.51 	0.061337 	3815 	0.060108
33.55 	0.058288 	3843 	0.057526
33.59 	0.061082 	3880 	0.060479
33.63 	0.056647 	3919 	0.055451
33.67 	0.059939 	3954 	0.058606
33.71 	0.064151 	3975 	0.063119
33.75 	0.063016 	3999 	0.062430
33.79 	0.056917 	4041 	0.055733
33.83 	0.054321 	4050 	0.053742
33.87 	0.061299 	4111 	0.060563
33.91 	0.053989 	4149 	0.053565
33.95 	0.063382 	4181 	0.061678
33.99 	0.057857 	4200 	0.057299
34.03 	0.064562 	4244 	0.063458
34.07 	0.058341 	4268 	0.057518
34.11 	0.055091 	4302 	0.054410
34.15 	0.057492 	4331 	0.055734
34.19 	0.060293 	4362 	0.058526
34.23 	0.061006 	4393 	0.060206
34.27 	0.063320 	4422 	0.062790
34.31 	0.058771 	4458 	0.057851
34.35 	0.060437 	4484 	0.059501
34.39 	0.060195 	4502 	0.058894
34.43 	0.058603 	4539 	0.057055
34.47 	0.066638 	4592 	0.065341
34.51 	0.065132 	4606 	0.063733
34.55 	0.060306 	4643 	0.058918
34.59 	0.058824 	4675 	0.057946
34.63 	0.057537 	4710 	0.056293
34.67 	0.061801 	4741 	0.060442
34.71 	0.059169 	4766 	0.058063
34.75 	0.061148 	4808 	0.059666
34.79 	0.063640 	4824 	0.062527
34.83 	0.060263 	4862 	0.058938
34.87 	0.056491 	4868 	0.055890
34.91 	0.053871 	4882 	0.053511
34.95 	0.060327 	4890 	0.059129
34.99 	0.063508 	4897 	0.062671
35.03 	0.055230 	4943 	0.054637
35.07 	0.059312 	4940 	0.057652
35.11 	0.059834 	4947 	0.058986
35.15 	0.055499 	4937 	0.054669
35.19 	0.060097 	4942 	0.059267
35.23 	0.059656 	4945 	0.058472
35.27 	0.053759 	4948 	0.052930
35.31 	0.054328 	4933 	0.053972
35.35 	0.055848 	4942 	0.055018
35.39 	0.056016 	4945 	0.055305
35.43 	0.063045 	4933 	0.062807
35.47 	0.053944 	4931 	0.052281
35.51 	0.052375 	4926 	0.051781
35.55 	0.052781 	4945 	0.051951
35.59 	0.062083 	4945 	0.060780
35.63 	0.060287 	4943 	0.059320
35.67 	0.059085 	4942 	0.058493
35.71 	0.060563 	4937 	0.059377
35.75 	0.060231 	4931 	0.058786
35.79 	0.057178 	4932 	0.056821
35.83 	0.061059 	4946 	0.060230
35.87 	0.057282 	4923 	0.057163
35.91 	0.056830 	4927 	0.055621
35.95 	0.056742 	4917 	0.055312
35.99 	0.054869 	4939 	0.054276
36.03 	0.057253 	4943 	0.056423
36.07 	0.056489 	4939 	0.055303
36.11 	0.055184 	4929 	0.054451
36.15 	0.055274 	4939 	0.054207
36.19 	0.060526 	4940 	0.059815
36.23 	0.059574 	4935 	0.058269
36.27 	0.057056 	4925 	0.056223
36.31 	0.061485 	4928 	0.060772
36.35 	0.057821 	4929 	0.056514
36.39 	0.060354 	4921 	0.059263
36.43 	0.061891 	4928 	0.060703
36.47 	0.059968 	4936 	0.058899
36.51 	0.056558 	4933 	0.054658
36.55 	0.061295 	4927 	0.060582
36.59 	0.054464 	4939 	0.053278
36.63 	0.054958 	4931 	0.054127
36.67 	0.053753 	4930 	0.053020
36.71 	0.053241 	4921 	0.052527
36.75 	0.055218 	4944 	0.054389
36.79 	0.054867 	4921 	0.054153
36.83 	0.056358 	4915 	0.056001
36.87 	0.057443 	4944 	0.056851
36.91 	0.049787 	4941 	0.048958
36.95 	0.058788 	4933 	0.057363
36.99 	0.053293 	4935 	0.052561
37.03 	0.050975 	4924 	0.049904
37.07 	0.052685 	4935 	0.052329
37.11 	0.053698 	4935 	0.053105
37.15 	0.059890 	4909 	0.058935
37.19 	0.057259 	4925 	0.056526
37.23 	0.057950 	4918 	0.056978
37.27 	0.053739 	4894 	0.052423
37.31 	0.051266 	4935 	0.050673
37.35 	0.053058 	4938 	0.052228
37.39 	0.052525 	4931 	0.051931
37.43 	0.054339 	4932 	0.053508
37.47 	0.057010 	4929 	0.055564
37.51 	0.053923 	4933 	0.053329
37.55 	0.047262 	4930 	0.046430
37.59 	0.055544 	4915 	0.054710
37.63 	0.053669 	4919 	0.053074
37.67 	0.059951 	4904 	0.058279
37.71 	0.053966 	4929 	0.052897
37.75 	0.051822 	4940 	0.051110
37.79 	0.055375 	4930 	0.054662
37.83 	0.060366 	4920 	0.058818
37.87 	0.052642 	4939 	0.051812
37.91 	0.051927 	4930 	0.050976
37.95 	0.049177 	4921 	0.048463
37.99 	0.056393 	4912 	0.055319
38.03 	0.058260 	4909 	0.056948
38.07 	0.058668 	4909 	0.057435
38.11 	0.059372 	4935 	0.058304
38.15 	0.055917 	4918 	0.055679
38.19 	0.059635 	4930 	0.058447
38.23 	0.057513 	4938 	0.056920
38.27 	0.062677 	4930 	0.060658
38.31 	0.061295 	4927 	0.060205
38.35 	0.059862 	4928 	0.059010
38.39 	0.065798 	4909 	0.064585
38.43 	0.060618 	4916 	0.059188
38.47 	0.068677 	4907 	0.067364
38.51 	0.064882 	4932 	0.063576
38.55 	0.067666 	4936 	0.065767
38.59 	0.053006 	4924 	0.052530
38.63 	0.055443 	4924 	0.054491
38.67 	0.057322 	4937 	0.056472
38.71 	0.057271 	4924 	0.055843
38.75 	0.054394 	4927 	0.053562
38.79 	0.055736 	4934 	0.054786
38.83 	0.049400 	4919 	0.048567
38.87 	0.054368 	4911 	0.053056
38.91 	0.051601 	4903 	0.050884
38.95 	0.052460 	4918 	0.051746
38.99 	0.054487 	4937 	0.053419
39.03 	0.051885 	4934 	0.050678
39.07 	0.057271 	4924 	0.056319
39.11 	0.052728 	4931 	0.051777
39.15 	0.052899 	4915 	0.052303
39.19 	0.053285 	4917 	0.052570
39.23 	0.052792 	4925 	0.051959
39.27 	0.054990 	4910 	0.053896
39.31 	0.048935 	4884 	0.048096
39.35 	0.050253 	4935 	0.049304
39.39 	0.047880 	4929 	0.047286
39.43 	0.054328 	4933 	0.053734
39.47 	0.052813 	4923 	0.051742
39.51 	0.047522 	4924 	0.047046
39.55 	0.053060 	4919 	0.052345
39.59 	0.050081 	4912 	0.049346
39.63 	0.055872 	4922 	0.055158
39.67 	0.054346 	4913 	0.053511
39.71 	0.050868 	4895 	0.049911
39.75 	0.058847 	4928 	0.057045
39.79 	0.053999 	4926 	0.053405
39.83 	0.056344 	4934 	0.055394
39.87 	0.061929 	4925 	0.061096
39.91 	0.051402 	4922 	0.050688
39.95 	0.051068 	4915 	0.050591
39.99 	0.056569 	4932 	0.055738
40.03 	0.055398 	4928 	0.054566
40.07 	0.056267 	4923 	0.055910
40.11 	0.055126 	4916 	0.054153
40.15 	0.056585 	4913 	0.055988
40.19 	0.050923 	4929 	0.050448
40.23 	0.056975 	4932 	0.055886
40.27 	0.059145 	4937 	0.058433
40.31 	0.050618 	4939 	0.050143
40.35 	0.055702 	4919 	0.054869
40.39 	0.055567 	4931 	0.054616
40.43 	0.053840 	4922 	0.052769
40.47 	0.052867 	4918 	0.051537
40.51 	0.053230 	4922 	0.052873
40.55 	0.050733 	4908 	0.050495
40.59 	0.046182 	4937 	0.045114
40.63 	0.051116 	4930 	0.050403
40.67 	0.054745 	4932 	0.054032
40.71 	0.055150 	4932 	0.053962
40.75 	0.048063 	4931 	0.047469
40.79 	0.051178 	4924 	0.050702
40.83 	0.049107 	4928 	0.048137
40.87 	0.047484 	4928 	0.047008
40.91 	0.053626 	4923 	0.053031
40.95 	0.054549 	4913 	0.053099
40.99 	0.055443 	4924 	0.054491
41.03 	0.046075 	4905 	0.045359
41.07 	0.051927 	4930 	0.050739
41.11 	0.049443 	4935 	0.049087
41.15 	0.049383 	4941 	0.048671
41.19 	0.047059 	4930 	0.046584
41.23 	0.051832 	4939 	0.051121
41.27 	0.048672 	4931 	0.047959
41.31 	0.049057 	4933 	0.048582
41.35 	0.047793 	4938 	0.047674
41.39 	0.052098 	4933 	0.051386
41.43 	0.056807 	4929 	0.056331
41.47 	0.048721 	4926 	0.047889
41.51 	0.054251 	4940 	0.053777
41.55 	0.050253 	4935 	0.049778
41.59 	0.046219 	4933 	0.045744
41.63 	0.047995 	4938 	0.047283
41.67 	0.043320 	4940 	0.042490
41.71 	0.044183 	4934 	0.043115
41.75 	0.046865 	4929 	0.046509
41.79 	0.047532 	4944 	0.046584
41.83 	0.051339 	4928 	0.050626
41.87 	0.043566 	4935 	0.042973
41.91 	0.044571 	4936 	0.043720
41.95 	0.049280 	4931 	0.048092
41.99 	0.042813 	4905 	0.041500
42.03 	0.046771 	4939 	0.046178
42.07 	0.046182 	4937 	0.045470
42.11 	0.048736 	4945 	0.047670
42.15 	0.049413 	4938 	0.049057
42.19 	0.045844 	4908 	0.045008
42.23 	0.052330 	4892 	0.051732
42.27 	0.052729 	4874 	0.052128
42.31 	0.048816 	4855 	0.047488
42.35 	0.052294 	4838 	0.051205
42.39 	0.046003 	4804 	0.045150
42.43 	0.048205 	4792 	0.047227
42.47 	0.043442 	4765 	0.043196
42.51 	0.047017 	4743 	0.046523
42.55 	0.047579 	4708 	0.046708
42.59 	0.052019 	4729 	0.051008
42.63 	0.047356 	4709 	0.046983
42.67 	0.046328 	4684 	0.045432
42.71 	0.045679 	4663 	0.044925
42.75 	0.039853 	4617 	0.039472
42.79 	0.047141 	4582 	0.046757
42.83 	0.051367 	4536 	0.050592
42.87 	0.049567 	4499 	0.048785
42.91 	0.047576 	4456 	0.046919
42.95 	0.045063 	4416 	0.044002
42.99 	0.050171 	4385 	0.049637
43.03 	0.042696 	4333 	0.042425
43.07 	0.047952 	4296 	0.046997
43.11 	0.046769 	4255 	0.045942
43.15 	0.037328 	4206 	0.036771
43.19 	0.052456 	4194 	0.051339
43.23 	0.045017 	4154 	0.044312
43.27 	0.050670 	4105 	0.050242
43.31 	0.047806 	4079 	0.047231
43.35 	0.049851 	4032 	0.049415
43.39 	0.052474 	4002 	0.051596
43.43 	0.049495 	3960 	0.048903
43.47 	0.053813 	3921 	0.053365
43.51 	0.047201 	3877 	0.046748
43.55 	0.043522 	2964 	0.043325
43.59 	0.044101 	1746 	0.043765
43.63 	0.040959 	1001 	0.040959
43.67 	0.039841 	502 	0.039841
43.71 	0.029289 	239 	0.029289
43.75 	0.062500 	16 	0.062500