Folder: Bessy-II-KMC-II-insitu-sin2psi/Example_Data (part 28)

File: 25SC_s1_0011.003.dat
#F C:\frames\spec\25SC_s1_0011.003
#C title =s:11 frm:3 25SC_s1
#C wavelength =0.15406

#S 1  fr_average C:\frames\spec\25SC_s1_0011.003 C:\win32app\speccom\mask.axs chi 0 180 0 360 0.02
#C 2 theta =0.000000 to 180 deg
#C   q   =0.000000 to 81.568 nm^-1
#C  chi  =0.000000 to 360 deg
#C collumns:
#C  1 position (2theta or chi in degrees)
#C  2 average intensity (sum of all counts in the region divided with number of pixels)
#C  3 Number of pixels in region)
#C  4 error (sum of sqrt(intensity) for all pixels divided by number)
#N 4
#L TTh  Int  N_pix  Err
32.99 	0.065574 	61 	0.065574
33.03 	0.058950 	1391 	0.058529
33.07 	0.058049 	2050 	0.057477
33.11 	0.071345 	2579 	0.070210
33.15 	0.055018 	2999 	0.054628
33.19 	0.068821 	3342 	0.067068
33.23 	0.061028 	3523 	0.060362
33.27 	0.061708 	3630 	0.061224
33.31 	0.062842 	3660 	0.061081
33.35 	0.057390 	3694 	0.056571
33.39 	0.059265 	3729 	0.058794
33.43 	0.054507 	3761 	0.053572
33.47 	0.062665 	3798 	0.061276
33.51 	0.058191 	3815 	0.057577
33.55 	0.062451 	3843 	0.061384
33.59 	0.057732 	3880 	0.057128
33.63 	0.062261 	3919 	0.061065
33.67 	0.059181 	3954 	0.058736
33.71 	0.066667 	3975 	0.065635
33.75 	0.060265 	3999 	0.059533
33.79 	0.067558 	4041 	0.066833
33.83 	0.064444 	4050 	0.063143
33.87 	0.062758 	4111 	0.061903
33.91 	0.062666 	4149 	0.061536
33.95 	0.063860 	4181 	0.062319
33.99 	0.054286 	4200 	0.053728
34.03 	0.055844 	4244 	0.055153
34.07 	0.061153 	4268 	0.060329
34.11 	0.061367 	4302 	0.060005
34.15 	0.059801 	4331 	0.058449
34.19 	0.056625 	4362 	0.056088
34.23 	0.066469 	4393 	0.065114
34.27 	0.062641 	4422 	0.061714
34.31 	0.058322 	4458 	0.057271
34.35 	0.060437 	4484 	0.059653
34.39 	0.058641 	4502 	0.057990
34.43 	0.064111 	4539 	0.063079
34.47 	0.056402 	4592 	0.055637
34.51 	0.062527 	4606 	0.061891
34.55 	0.060737 	4643 	0.059601
34.59 	0.057112 	4675 	0.056069
34.63 	0.062633 	4710 	0.061638
34.67 	0.060747 	4741 	0.059635
34.71 	0.063156 	4766 	0.061804
34.75 	0.059900 	4808 	0.058804
34.79 	0.064055 	4824 	0.062355
34.83 	0.054504 	4862 	0.053059
34.87 	0.061422 	4868 	0.059617
34.91 	0.061655 	4882 	0.060695
34.95 	0.058487 	4890 	0.057768
34.99 	0.059833 	4897 	0.058756
35.03 	0.067368 	4943 	0.066538
35.07 	0.061943 	4940 	0.060619
35.11 	0.061654 	4947 	0.060825
35.15 	0.053474 	4937 	0.052287
35.19 	0.055038 	4942 	0.054564
35.23 	0.058645 	4945 	0.057204
35.27 	0.059014 	4948 	0.058185
35.31 	0.060815 	4933 	0.059865
35.35 	0.062121 	4942 	0.060580
35.39 	0.065116 	4945 	0.063083
35.43 	0.066694 	4933 	0.065269
35.47 	0.062665 	4931 	0.061438
35.51 	0.058668 	4926 	0.057598
35.55 	0.058645 	4945 	0.057579
35.59 	0.061072 	4945 	0.059631
35.63 	0.056848 	4943 	0.055307
35.67 	0.060704 	4942 	0.060349
35.71 	0.059753 	4937 	0.058685
35.75 	0.061854 	4931 	0.061022
35.79 	0.067113 	4932 	0.066143
35.83 	0.064092 	4946 	0.063026
35.87 	0.062360 	4923 	0.060813
35.91 	0.057642 	4927 	0.056928
35.95 	0.067317 	4917 	0.066126
35.99 	0.065195 	4939 	0.064009
36.03 	0.059478 	4943 	0.058293
36.07 	0.060741 	4939 	0.059911
36.11 	0.060661 	4929 	0.060186
36.15 	0.059121 	4939 	0.058291
36.19 	0.058704 	4940 	0.058092
36.23 	0.063019 	4935 	0.061575
36.27 	0.054416 	4925 	0.053584
36.31 	0.055601 	4928 	0.054412
36.35 	0.061879 	4929 	0.061166
36.39 	0.060354 	4921 	0.059639
36.43 	0.059253 	4928 	0.058183
36.47 	0.059157 	4936 	0.058089
36.51 	0.061626 	4933 	0.061032
36.55 	0.062107 	4927 	0.061037
36.59 	0.056894 	4939 	0.055945
36.63 	0.056784 	4931 	0.056665
36.67 	0.057201 	4930 	0.056607
36.71 	0.059541 	4921 	0.058707
36.75 	0.055016 	4944 	0.053476
36.79 	0.058321 	4921 	0.057369
36.83 	0.060834 	4915 	0.059642
36.87 	0.058859 	4944 	0.058385
36.91 	0.059300 	4941 	0.057957
36.95 	0.055544 	4933 	0.054238
36.99 	0.054509 	4935 	0.053421
37.03 	0.058489 	4924 	0.057537
37.07 	0.061601 	4935 	0.060394
37.11 	0.052077 	4935 	0.051602
37.15 	0.055816 	4909 	0.054265
37.19 	0.055025 	4925 	0.053360
37.23 	0.056934 	4918 	0.056219
37.27 	0.058848 	4894 	0.057651
37.31 	0.057953 	4935 	0.056866
37.35 	0.059943 	4938 	0.058738
37.39 	0.055770 	4931 	0.054819
37.43 	0.061841 	4932 	0.061128
37.47 	0.060864 	4929 	0.059676
37.51 	0.057977 	4933 	0.056196
37.55 	0.055172 	4930 	0.054341
37.59 	0.055341 	4915 	0.054387
37.63 	0.053263 	4919 	0.052310
37.67 	0.049144 	4904 	0.047830
37.71 	0.055995 	4929 	0.055044
37.75 	0.053036 	4940 	0.052206
37.79 	0.051521 	4930 	0.050571
37.83 	0.052846 	4920 	0.051516
37.87 	0.054667 	4939 	0.053955
37.91 	0.049087 	4930 	0.048018
37.95 	0.052022 	4921 	0.051189
37.99 	0.052117 	4912 	0.051759
38.03 	0.049094 	4909 	0.048378
38.07 	0.060909 	4909 	0.060073
38.11 	0.051266 	4935 	0.050673
38.15 	0.057544 	4918 	0.055995
38.19 	0.060041 	4930 	0.059209
38.23 	0.054678 	4938 	0.053591
38.27 	0.053955 	4930 	0.053124
38.31 	0.055206 	4927 	0.054255
38.35 	0.054992 	4928 	0.054259
38.39 	0.059890 	4909 	0.058458
38.43 	0.063670 	4916 	0.062836
38.47 	0.059914 	4907 	0.059198
38.51 	0.056975 	4932 	0.056262
38.55 	0.060373 	4936 	0.059285
38.59 	0.055240 	4924 	0.054407
38.63 	0.061332 	4924 	0.060143
38.67 	0.063804 	4937 	0.063329
38.71 	0.057677 	4924 	0.057082
38.75 	0.057033 	4927 	0.056438
38.79 	0.061613 	4934 	0.060307
38.83 	0.056312 	4919 	0.055479
38.87 	0.050703 	4911 	0.050225
38.91 	0.052621 	4903 	0.051904
38.95 	0.044937 	4918 	0.043865
38.99 	0.047397 	4937 	0.046685
39.03 	0.052898 	4934 	0.052305
39.07 	0.048132 	4924 	0.047537
39.11 	0.047860 	4931 	0.046891
39.15 	0.048627 	4915 	0.048031
39.19 	0.049624 	4917 	0.048671
39.23 	0.049746 	4925 	0.049270
39.27 	0.048065 	4910 	0.047588
39.31 	0.053030 	4884 	0.052431
39.35 	0.054306 	4935 	0.053119
39.39 	0.047271 	4929 	0.046439
39.43 	0.052504 	4933 	0.051791
39.47 	0.046923 	4923 	0.046328
39.51 	0.049959 	4924 	0.049365
39.55 	0.048384 	4919 	0.047431
39.59 	0.043974 	4912 	0.043020
39.63 	0.051808 	4922 	0.050975
39.67 	0.051292 	4913 	0.050100
39.71 	0.049847 	4895 	0.048530
39.75 	0.053166 	4928 	0.052314
39.79 	0.048518 	4926 	0.048280
39.83 	0.051480 	4934 	0.050767
39.87 	0.045279 	4925 	0.044566
39.91 	0.053027 	4922 	0.052313
39.95 	0.047202 	4915 	0.046845
39.99 	0.040552 	4932 	0.040076
40.03 	0.053774 	4928 	0.052942
40.07 	0.049563 	4923 	0.048849
40.11 	0.051261 	4916 	0.050665
40.15 	0.050275 	4913 	0.050036
40.19 	0.049503 	4929 	0.049146
40.23 	0.042376 	4932 	0.041426
40.27 	0.053879 	4937 	0.053029
40.31 	0.045353 	4939 	0.044523
40.35 	0.043911 	4919 	0.043554
40.39 	0.050091 	4931 	0.049260
40.43 	0.044291 	4922 	0.043696
40.47 	0.044327 	4918 	0.043374
40.51 	0.050183 	4922 	0.049588
40.55 	0.042380 	4908 	0.042260
40.59 	0.046992 	4937 	0.046755
40.63 	0.044625 	4930 	0.044149
40.67 	0.049878 	4932 	0.049047
40.71 	0.053731 	4932 	0.052424
40.75 	0.049686 	4931 	0.048735
40.79 	0.045288 	4924 	0.044813
40.83 	0.045860 	4928 	0.045028
40.87 	0.046469 	4928 	0.046113
40.91 	0.043469 	4923 	0.042755
40.95 	0.043151 	4913 	0.042793
40.99 	0.048741 	4924 	0.048384
41.03 	0.053823 	4905 	0.053206
41.07 	0.048276 	4930 	0.047543
41.11 	0.045795 	4935 	0.044608
41.15 	0.046145 	4941 	0.045670
41.19 	0.043813 	4930 	0.043219
41.23 	0.047176 	4939 	0.046701
41.27 	0.043399 	4931 	0.042785
41.31 	0.043584 	4933 	0.043109
41.35 	0.048198 	4938 	0.047605
41.39 	0.047638 	4933 	0.047401
41.43 	0.044837 	4929 	0.044837
41.47 	0.048112 	4926 	0.047280
41.51 	0.047571 	4940 	0.046978
41.55 	0.042351 	4935 	0.041994
41.59 	0.043179 	4933 	0.042585
41.63 	0.041717 	4938 	0.041361
41.67 	0.044332 	4940 	0.043601
41.71 	0.043373 	4934 	0.042898
41.75 	0.047677 	4929 	0.046845
41.79 	0.039644 	4944 	0.039644
41.83 	0.041193 	4928 	0.040361
41.87 	0.047416 	4935 	0.046704
41.91 	0.041734 	4936 	0.041378
41.95 	0.038937 	4931 	0.038700
41.99 	0.045668 	4905 	0.045190
42.03 	0.046163 	4939 	0.045096
42.07 	0.044561 	4937 	0.044324
42.11 	0.047321 	4945 	0.046373
42.15 	0.038882 	4938 	0.038764
42.19 	0.039324 	4908 	0.039085
42.23 	0.044971 	4892 	0.044253
42.27 	0.044727 	4874 	0.043886
42.31 	0.041195 	4855 	0.040350
42.35 	0.048160 	4838 	0.047434
42.39 	0.049958 	4804 	0.048861
42.43 	0.039858 	4792 	0.039491
42.47 	0.044491 	4765 	0.043876
42.51 	0.047017 	4743 	0.045411
42.55 	0.046092 	4708 	0.045449
42.59 	0.038274 	4729 	0.037779
42.63 	0.041622 	4709 	0.041249
42.67 	0.045901 	4684 	0.044755
42.71 	0.043534 	4663 	0.042760
42.75 	0.045484 	4617 	0.044596
42.79 	0.041903 	4582 	0.041264
42.83 	0.042769 	4536 	0.042640
42.87 	0.039342 	4499 	0.038951
42.91 	0.039497 	4456 	0.039234
42.95 	0.043478 	4416 	0.042815
42.99 	0.036944 	4385 	0.036410
43.03 	0.041542 	4333 	0.041001
43.07 	0.044460 	4296 	0.043642
43.11 	0.040658 	4255 	0.040658
43.15 	0.041845 	4206 	0.041566
43.19 	0.040773 	4194 	0.040493
43.23 	0.049350 	4154 	0.048645
43.27 	0.040926 	4105 	0.040212
43.31 	0.051483 	4079 	0.050478
43.35 	0.041171 	4032 	0.040590
43.39 	0.036732 	4002 	0.036439
43.43 	0.045455 	3960 	0.044715
43.47 	0.042591 	3921 	0.041844
43.51 	0.042817 	3877 	0.042212
43.55 	0.039474 	2964 	0.039276
43.59 	0.044101 	1746 	0.043765
43.63 	0.046953 	1001 	0.045783
43.67 	0.049801 	502 	0.049801
43.71 	0.037657 	239 	0.037657
43.75 	0.000000 	16 	0.000000

File: 25SC_s1_0011.004.dat
#F C:\frames\spec\25SC_s1_0011.004
#C title =s:11 frm:4 25SC_s1
#C wavelength =0.15406

#S 1  fr_average C:\frames\spec\25SC_s1_0011.004 C:\win32app\speccom\mask.axs chi 0 180 0 360 0.02
#C 2 theta =0.000000 to 180 deg
#C   q   =0.000000 to 81.568 nm^-1
#C  chi  =0.000000 to 360 deg
#C collumns:
#C  1 position (2theta or chi in degrees)
#C  2 average intensity (sum of all counts in the region divided with number of pixels)
#C  3 Number of pixels in region)
#C  4 error (sum of sqrt(intensity) for all pixels divided by number)
#N 4
#L TTh  Int  N_pix  Err
32.99 	0.032787 	61 	0.032787
33.03 	0.055356 	1391 	0.054514
33.07 	0.068293 	2050 	0.067150
33.11 	0.056223 	2579 	0.054406
33.15 	0.051017 	2999 	0.050040
33.19 	0.055955 	3342 	0.054903
33.23 	0.057337 	3523 	0.056506
33.27 	0.062534 	3630 	0.061728
33.31 	0.064208 	3660 	0.062127
33.35 	0.054142 	3694 	0.053825
33.39 	0.049879 	3729 	0.049408
33.43 	0.053975 	3761 	0.053352
33.47 	0.058452 	3798 	0.057526
33.51 	0.058453 	3815 	0.057839
33.55 	0.059068 	3843 	0.057849
33.59 	0.057732 	3880 	0.056826
33.63 	0.053075 	3919 	0.052626
33.67 	0.053364 	3954 	0.052327
33.71 	0.060126 	3975 	0.059094
33.75 	0.053263 	3999 	0.052091
33.79 	0.054195 	4041 	0.053615
33.83 	0.062716 	4050 	0.061559
33.87 	0.060569 	4111 	0.059263
33.91 	0.059773 	4149 	0.058785
33.95 	0.062664 	4181 	0.061964
33.99 	0.061429 	4200 	0.060034
34.03 	0.062205 	4244 	0.060963
34.07 	0.062090 	4268 	0.061266
34.11 	0.060437 	4302 	0.060165
34.15 	0.059109 	4331 	0.058162
34.19 	0.059606 	4362 	0.058666
34.23 	0.053494 	4393 	0.053361
34.27 	0.053143 	4422 	0.052084
34.31 	0.065276 	4458 	0.063940
34.35 	0.067128 	4484 	0.066344
34.39 	0.061306 	4502 	0.060005
34.43 	0.060145 	4539 	0.059242
34.47 	0.054660 	4592 	0.053512
34.51 	0.057968 	4606 	0.057078
34.55 	0.058798 	4643 	0.057789
34.59 	0.060321 	4675 	0.059945
34.63 	0.056900 	4710 	0.055905
34.67 	0.063278 	4741 	0.061919
34.71 	0.064205 	4766 	0.062976
34.75 	0.066764 	4808 	0.065667
34.79 	0.063640 	4824 	0.062062
34.83 	0.067668 	4862 	0.066785
34.87 	0.059573 	4868 	0.057647
34.91 	0.058583 	4882 	0.057503
34.95 	0.062168 	4890 	0.061209
34.99 	0.062283 	4897 	0.060848
35.03 	0.062310 	4943 	0.060869
35.07 	0.060324 	4940 	0.059612
35.11 	0.058824 	4947 	0.057639
35.15 	0.063399 	4937 	0.061837
35.19 	0.059490 	4942 	0.058542
35.23 	0.064307 	4945 	0.062530
35.27 	0.064470 	4948 	0.063642
35.31 	0.061626 	4933 	0.060913
35.35 	0.061311 	4942 	0.060126
35.39 	0.062690 	4945 	0.061722
35.43 	0.060207 	4933 	0.059494
35.47 	0.057189 	4931 	0.056476
35.51 	0.063540 	4926 	0.062589
35.55 	0.064307 	4945 	0.063340
35.59 	0.059454 	4945 	0.058388
35.63 	0.059883 	4943 	0.058915
35.67 	0.056860 	4942 	0.056267
35.71 	0.060766 	4937 	0.059204
35.75 	0.064287 	4931 	0.063317
35.79 	0.061436 	4932 	0.060367
35.83 	0.062677 	4946 	0.061729
35.87 	0.060126 	4923 	0.059769
35.91 	0.065557 	4927 	0.064725
35.95 	0.064470 	4917 	0.062902
35.99 	0.053047 	4939 	0.052454
36.03 	0.061097 	4943 	0.060385
36.07 	0.059324 	4939 	0.058019
36.11 	0.059647 	4929 	0.058934
36.15 	0.060944 	4939 	0.059520
36.19 	0.061538 	4940 	0.060234
36.23 	0.059777 	4935 	0.058333
36.27 	0.067005 	4925 	0.065439
36.31 	0.056818 	4928 	0.056224
36.35 	0.054372 	4929 	0.053778
36.39 	0.058118 	4921 	0.056690
36.43 	0.061282 	4928 	0.059737
36.47 	0.056118 	4936 	0.055169
36.51 	0.055544 	4933 	0.054456
36.55 	0.058047 	4927 	0.057453
36.59 	0.061551 	4939 	0.060721
36.63 	0.058609 	4931 	0.058134
36.67 	0.058824 	4930 	0.057616
36.71 	0.063808 	4921 	0.062975
36.75 	0.057039 	4944 	0.056328
36.79 	0.061370 	4921 	0.060279
36.83 	0.055137 	4915 	0.054065
36.87 	0.056230 	4944 	0.055045
36.91 	0.059300 	4941 	0.058707
36.95 	0.056152 	4933 	0.055321
36.99 	0.058156 	4935 	0.057088
37.03 	0.057067 	4924 	0.055878
37.07 	0.058967 	4935 	0.058492
37.11 	0.054103 	4935 	0.053253
37.15 	0.058057 	4909 	0.057102
37.19 	0.054213 	4925 	0.053737
37.23 	0.056527 	4918 	0.055555
37.27 	0.055987 	4894 	0.055388
37.31 	0.059574 	4935 	0.058862
37.35 	0.054678 	4938 	0.053729
37.39 	0.056378 	4931 	0.055289
37.43 	0.056569 	4932 	0.056094
37.47 	0.059241 	4929 	0.058409
37.51 	0.059801 	4933 	0.058258
37.55 	0.059026 	4930 	0.057581
37.59 	0.060427 	4915 	0.059831
37.63 	0.054686 	4919 	0.053852
37.67 	0.059951 	4904 	0.058279
37.71 	0.053155 	4929 	0.052561
37.75 	0.056680 	4940 	0.055475
37.79 	0.061663 	4930 	0.060950
37.83 	0.053252 	4920 	0.052895
37.87 	0.054464 	4939 	0.053397
37.91 	0.051724 	4930 	0.051011
37.95 	0.057509 	4921 	0.056318
37.99 	0.058836 	4912 	0.057524
38.03 	0.057853 	4909 	0.056302
38.07 	0.058464 	4909 	0.057748
38.11 	0.062006 	4935 	0.060700
38.15 	0.059984 	4918 	0.058912
38.19 	0.062272 	4930 	0.061678
38.23 	0.063791 	4938 	0.062723
38.27 	0.059026 	4930 	0.057838
38.31 	0.066166 	4927 	0.065215
38.35 	0.068994 	4928 	0.067924
38.39 	0.068242 	4909 	0.067168
38.43 	0.065907 	4916 	0.064716
38.47 	0.061952 	4907 	0.060639
38.51 	0.066099 	4932 	0.064773
38.55 	0.068476 	4936 	0.067527
38.59 	0.061535 	4924 	0.060346
38.63 	0.061535 	4924 	0.060703
38.67 	0.059753 	4937 	0.058922
38.71 	0.058083 	4924 	0.057369
38.75 	0.057236 	4927 	0.056760
38.79 	0.060803 	4934 	0.059378
38.83 	0.057329 	4919 	0.056376
38.87 	0.054164 	4911 	0.053568
38.91 	0.052621 	4903 	0.051665
38.95 	0.057747 	4918 	0.057152
38.99 	0.050638 	4937 	0.050163
39.03 	0.051074 	4934 	0.050362
39.07 	0.053006 	4924 	0.052292
39.11 	0.051916 	4931 	0.051085
39.15 	0.052492 	4915 	0.052016
39.19 	0.053895 	4917 	0.053418
39.23 	0.048325 	4925 	0.047473
39.27 	0.054786 	4910 	0.053712
39.31 	0.056921 	4884 	0.055961
39.35 	0.055117 	4935 	0.054048
39.39 	0.051329 	4929 	0.050497
39.43 	0.054531 	4933 	0.053224
39.47 	0.050579 	4923 	0.049984
39.51 	0.051381 	4924 	0.050429
39.55 	0.054076 	4919 	0.052508
39.59 	0.060871 	4912 	0.059082
39.63 	0.059732 	4922 	0.058423
39.67 	0.056177 	4913 	0.055224
39.71 	0.054137 	4895 	0.053539
39.75 	0.058847 	4928 	0.057659
39.79 	0.058262 	4926 	0.057668
39.83 	0.056749 	4934 	0.056037
39.87 	0.053807 	4925 	0.053093
39.91 	0.055872 	4922 	0.054919
39.95 	0.053917 	4915 	0.053321
39.99 	0.051703 	4932 	0.050991
40.03 	0.053977 	4928 	0.053026
40.07 	0.054032 	4923 	0.053675
40.11 	0.059194 	4916 	0.057765
40.15 	0.057602 	4913 	0.056410
40.19 	0.055995 	4929 	0.055401
40.23 	0.054542 	4932 	0.053473
40.27 	0.052461 	4937 	0.051492
40.31 	0.045961 	4939 	0.045605
40.35 	0.054076 	4919 	0.053123
40.39 	0.053539 	4931 	0.052588
40.43 	0.050386 	4922 	0.049315
40.47 	0.050020 	4918 	0.049067
40.51 	0.056887 	4922 	0.055935
40.55 	0.051548 	4908 	0.051071
40.59 	0.053474 	4937 	0.053236
40.63 	0.049087 	4930 	0.047661
40.67 	0.053731 	4932 	0.053137
40.71 	0.052920 	4932 	0.052445
40.75 	0.059623 	4931 	0.058791
40.79 	0.055037 	4924 	0.053946
40.83 	0.053774 	4928 	0.052705
40.87 	0.050325 	4928 	0.049493
40.91 	0.049360 	4923 	0.048884
40.95 	0.052921 	4913 	0.052205
40.99 	0.053412 	4924 	0.052678
41.03 	0.051172 	4905 	0.049859
41.07 	0.050101 	4930 	0.049270
41.11 	0.051064 	4935 	0.049877
41.15 	0.053835 	4941 	0.053124
41.19 	0.050304 	4930 	0.049829
41.23 	0.047783 	4939 	0.047309
41.27 	0.051105 	4931 	0.050036
41.31 	0.049666 	4933 	0.048953
41.35 	0.051438 	4938 	0.051082
41.39 	0.057369 	4933 	0.055469
41.43 	0.046663 	4929 	0.046425
41.47 	0.050345 	4926 	0.048760
41.51 	0.051215 	4940 	0.050622
41.55 	0.048430 	4935 	0.047836
41.59 	0.054733 	4933 	0.053783
41.63 	0.048603 	4938 	0.047772
41.67 	0.058300 	4940 	0.057470
41.71 	0.046615 	4934 	0.045666
41.75 	0.051329 	4929 	0.050497
41.79 	0.051375 	4944 	0.050309
41.83 	0.053571 	4928 	0.052858
41.87 	0.047619 	4935 	0.046669
41.91 	0.042747 	4936 	0.042391
41.95 	0.047658 	4931 	0.047182
41.99 	0.044648 	4905 	0.044290
42.03 	0.052440 	4939 	0.051847
42.07 	0.051853 	4937 	0.051260
42.11 	0.045096 	4945 	0.044859
42.15 	0.045970 	4938 	0.045377
42.19 	0.050733 	4908 	0.050017
42.23 	0.046402 	4892 	0.045804
42.27 	0.045753 	4874 	0.044772
42.31 	0.051699 	4855 	0.050734
42.35 	0.051261 	4838 	0.050413
42.39 	0.049334 	4804 	0.048602
42.43 	0.053631 	4792 	0.052898
42.47 	0.044071 	4765 	0.043825
42.51 	0.048914 	4743 	0.048173
42.55 	0.045030 	4708 	0.044283
42.59 	0.055826 	4729 	0.055702
42.63 	0.045870 	4709 	0.045372
42.67 	0.050811 	4684 	0.050186
42.71 	0.046537 	4663 	0.045783
42.75 	0.040719 	4617 	0.040338
42.79 	0.045832 	4582 	0.045576
42.83 	0.046737 	4536 	0.045962
42.87 	0.048900 	4499 	0.048509
42.91 	0.048025 	4456 	0.047105
42.95 	0.048007 	4416 	0.046813
42.99 	0.049487 	4385 	0.048953
43.03 	0.047542 	4333 	0.047137
43.07 	0.054935 	4296 	0.053980
43.11 	0.042538 	4255 	0.042401
43.15 	0.047789 	4206 	0.047510
43.19 	0.044826 	4194 	0.044547
43.23 	0.053683 	4154 	0.052978
43.27 	0.052619 	4105 	0.051905
43.31 	0.044128 	4079 	0.043123
43.35 	0.048611 	4032 	0.047594
43.39 	0.045977 	4002 	0.045392
43.43 	0.043939 	3960 	0.043348
43.47 	0.047947 	3921 	0.047175
43.51 	0.045138 	3877 	0.044231
43.55 	0.043185 	2964 	0.042394
43.59 	0.054983 	1746 	0.054647
43.63 	0.040959 	1001 	0.040374
43.67 	0.045817 	502 	0.045817
43.71 	0.058577 	239 	0.056126
43.75 	0.125000 	16 	0.088388