Folder: Bessy-II-KMC-II-insitu-sin2psi/Example_Data (part 80)

File: 25SC_s1_0032.002.dat
#F C:\frames\spec\25SC_s1_0032.002
#C title =s:32 frm:2 25SC_s1
#C wavelength =0.15406

#S 1  fr_average C:\frames\spec\25SC_s1_0032.002 C:\win32app\speccom\mask.axs chi 0 180 0 360 0.02
#C 2 theta =0.000000 to 180 deg
#C   q   =0.000000 to 81.568 nm^-1
#C  chi  =0.000000 to 360 deg
#C collumns:
#C  1 position (2theta or chi in degrees)
#C  2 average intensity (sum of all counts in the region divided with number of pixels)
#C  3 Number of pixels in region)
#C  4 error (sum of sqrt(intensity) for all pixels divided by number)
#N 4
#L TTh  Int  N_pix  Err
32.99 	0.098361 	61 	0.098361
33.03 	0.048167 	1391 	0.047746
33.07 	0.055122 	2050 	0.054265
33.11 	0.061652 	2579 	0.060062
33.15 	0.055018 	2999 	0.054432
33.19 	0.063136 	3342 	0.062610
33.23 	0.057905 	3523 	0.056908
33.27 	0.066667 	3630 	0.065214
33.31 	0.053552 	3660 	0.052912
33.35 	0.057120 	3694 	0.056010
33.39 	0.050147 	3729 	0.049519
33.43 	0.059559 	3761 	0.058313
33.47 	0.059505 	3798 	0.058271
33.51 	0.064220 	3815 	0.063299
33.55 	0.055686 	3843 	0.055381
33.59 	0.051289 	3880 	0.050685
33.63 	0.058688 	3919 	0.056446
33.67 	0.056146 	3954 	0.054960
33.71 	0.061132 	3975 	0.059806
33.75 	0.056014 	3999 	0.055135
33.79 	0.063103 	4041 	0.061944
33.83 	0.063457 	4050 	0.062300
33.87 	0.056677 	4111 	0.056250
33.91 	0.058327 	4149 	0.057175
33.95 	0.056685 	4181 	0.055564
33.99 	0.057143 	4200 	0.056306
34.03 	0.058435 	4244 	0.057055
34.07 	0.062793 	4268 	0.061398
34.11 	0.060902 	4302 	0.060357
34.15 	0.062341 	4331 	0.061665
34.19 	0.051582 	4362 	0.050910
34.23 	0.063282 	4393 	0.061682
34.27 	0.059249 	4422 	0.057903
34.31 	0.058995 	4458 	0.058338
34.35 	0.057315 	4484 	0.056270
34.39 	0.055087 	4502 	0.054046
34.43 	0.058603 	4539 	0.057571
34.47 	0.062718 	4592 	0.061315
34.51 	0.062310 	4606 	0.060911
34.55 	0.062029 	4643 	0.061650
34.59 	0.059893 	4675 	0.059141
34.63 	0.053928 	4710 	0.053306
34.67 	0.059692 	4741 	0.058827
34.71 	0.056022 	4766 	0.055161
34.75 	0.054700 	4808 	0.053117
34.79 	0.060531 	4824 	0.059681
34.83 	0.058824 	4862 	0.058101
34.87 	0.059367 	4868 	0.058405
34.91 	0.055920 	4882 	0.054840
34.95 	0.062986 	4890 	0.061908
34.99 	0.056769 	4897 	0.054975
35.03 	0.062715 	4943 	0.062004
35.07 	0.053239 	4940 	0.052290
35.11 	0.059632 	4947 	0.058566
35.15 	0.060766 	4937 	0.060054
35.19 	0.054431 	4942 	0.053957
35.23 	0.052781 	4945 	0.051951
35.27 	0.061237 	4948 	0.059935
35.31 	0.054936 	4933 	0.053867
35.35 	0.053015 	4942 	0.052185
35.39 	0.058443 	4945 	0.058087
35.43 	0.052909 	4933 	0.052434
35.47 	0.056378 	4931 	0.055784
35.51 	0.058871 	4926 	0.058019
35.55 	0.053185 	4945 	0.052711
35.59 	0.057432 	4945 	0.056366
35.63 	0.056443 	4943 	0.055851
35.67 	0.057669 	4942 	0.057313
35.71 	0.056309 	4937 	0.055479
35.75 	0.053133 	4931 	0.052064
35.79 	0.059611 	4932 	0.058779
35.83 	0.061059 	4946 	0.060230
35.87 	0.056063 	4923 	0.055587
35.91 	0.053379 	4927 	0.052428
35.95 	0.067724 	4917 	0.066175
35.99 	0.055882 	4939 	0.055052
36.03 	0.056241 	4943 	0.056004
36.07 	0.062968 	4939 	0.061426
36.11 	0.063299 	4929 	0.061992
36.15 	0.054667 	4939 	0.053125
36.19 	0.051012 	4940 	0.049945
36.23 	0.056940 	4935 	0.055516
36.27 	0.057665 	4925 	0.057189
36.31 	0.053369 	4928 	0.053250
36.35 	0.059038 	4929 	0.058444
36.39 	0.056899 	4921 	0.056423
36.43 	0.053571 	4928 	0.052502
36.47 	0.061791 	4936 	0.060960
36.51 	0.054125 	4933 	0.053175
36.55 	0.052162 	4927 	0.051805
36.59 	0.055072 	4939 	0.053767
36.63 	0.051105 	4931 	0.050749
36.67 	0.064097 	4930 	0.063266
36.71 	0.050599 	4921 	0.050004
36.75 	0.052994 	4944 	0.052401
36.79 	0.062386 	4921 	0.061533
36.83 	0.055341 	4915 	0.054368
36.87 	0.055825 	4944 	0.054759
36.91 	0.060109 	4941 	0.059398
36.95 	0.054936 	4933 	0.053630
36.99 	0.052077 	4935 	0.051602
37.03 	0.048132 	4924 	0.047537
37.07 	0.057953 	4935 	0.056766
37.11 	0.057345 	4935 	0.056139
37.15 	0.053371 	4909 	0.052775
37.19 	0.049543 	4925 	0.048829
37.23 	0.054290 	4918 	0.053199
37.27 	0.053331 	4894 	0.052493
37.31 	0.051064 	4935 	0.050945
37.35 	0.055488 	4938 	0.054658
37.39 	0.060637 	4931 	0.058974
37.43 	0.051906 	4932 	0.051075
37.47 	0.051329 	4929 	0.050616
37.51 	0.055342 	4933 	0.054610
37.55 	0.053144 	4930 	0.052075
37.59 	0.053103 	4915 	0.052268
37.63 	0.055092 	4919 	0.054001
37.67 	0.054649 	4904 	0.053793
37.71 	0.052546 	4929 	0.051001
37.75 	0.047773 	4940 	0.047299
37.79 	0.054767 	4930 	0.053579
37.83 	0.051220 	4920 	0.050386
37.87 	0.055477 	4939 	0.054884
37.91 	0.051318 	4930 	0.050487
37.95 	0.055477 	4921 	0.054881
37.99 	0.052932 	4912 	0.051839
38.03 	0.050519 	4909 	0.049565
38.07 	0.055612 	4909 	0.054777
38.11 	0.054306 	4935 	0.053712
38.15 	0.048800 	4918 	0.047967
38.19 	0.059838 	4930 	0.059006
38.23 	0.056298 	4938 	0.055092
38.27 	0.062069 	4930 	0.060881
38.31 	0.056830 	4927 	0.055997
38.35 	0.058036 	4928 	0.057323
38.39 	0.056631 	4909 	0.055437
38.43 	0.060822 	4916 	0.060464
38.47 	0.068270 	4907 	0.066599
38.51 	0.071979 	4932 	0.070059
38.55 	0.066045 	4936 	0.064859
38.59 	0.059504 	4924 	0.058315
38.63 	0.064582 	4924 	0.063253
38.67 	0.056512 	4937 	0.056156
38.71 	0.053006 	4924 	0.052530
38.75 	0.053988 	4927 	0.053156
38.79 	0.052088 	4934 	0.051375
38.83 	0.054279 	4919 	0.053565
38.87 	0.053146 	4911 	0.052072
38.91 	0.051193 	4903 	0.050357
38.95 	0.051647 	4918 	0.050794
38.99 	0.050435 	4937 	0.049724
39.03 	0.046615 	4934 	0.046259
39.07 	0.047725 	4924 	0.046893
39.11 	0.046035 	4931 	0.045323
39.15 	0.046796 	4915 	0.045842
39.19 	0.050641 	4917 	0.049688
39.23 	0.047310 	4925 	0.046834
39.27 	0.044603 	4910 	0.044006
39.31 	0.040541 	4884 	0.040061
39.35 	0.050861 	4935 	0.050011
39.39 	0.046865 	4929 	0.046271
39.43 	0.044395 	4933 	0.044039
39.47 	0.043876 	4923 	0.043023
39.51 	0.046913 	4924 	0.046675
39.55 	0.049197 	4919 	0.048840
39.59 	0.050081 	4912 	0.049604
39.63 	0.047338 	4922 	0.046981
39.67 	0.048036 	4913 	0.047082
39.71 	0.044944 	4895 	0.044345
39.75 	0.048498 	4928 	0.047785
39.79 	0.049736 	4926 	0.048666
39.83 	0.048642 	4934 	0.047811
39.87 	0.042234 	4925 	0.041877
39.91 	0.043681 	4922 	0.043086
39.95 	0.050458 	4915 	0.049981
39.99 	0.040349 	4932 	0.039399
40.03 	0.042817 	4928 	0.042341
40.07 	0.046313 	4923 	0.045123
40.11 	0.041904 	4916 	0.041666
40.15 	0.049257 	4913 	0.047588
40.19 	0.045040 	4929 	0.044445
40.23 	0.038929 	4932 	0.038811
40.27 	0.038687 	4937 	0.038213
40.31 	0.039077 	4939 	0.038602
40.35 	0.046554 	4919 	0.046197
40.39 	0.037721 	4931 	0.037483
40.43 	0.036774 	4922 	0.036298
40.47 	0.045750 	4918 	0.044678
40.51 	0.044291 	4922 	0.043458
40.55 	0.040139 	4908 	0.039900
40.59 	0.045574 	4937 	0.045100
40.63 	0.040974 	4930 	0.040617
40.67 	0.041971 	4932 	0.041377
40.71 	0.038727 	4932 	0.038252
40.75 	0.044210 	4931 	0.043854
40.79 	0.041836 	4924 	0.041003
40.83 	0.043425 	4928 	0.042831
40.87 	0.040990 	4928 	0.040753
40.91 	0.042860 	4923 	0.042503
40.95 	0.041522 	4913 	0.041046
40.99 	0.040820 	4924 	0.040226
41.03 	0.036290 	4905 	0.035812
41.07 	0.037931 	4930 	0.037575
41.11 	0.040932 	4935 	0.040457
41.15 	0.048776 	4941 	0.047946
41.19 	0.040568 	4930 	0.040093
41.23 	0.040494 	4939 	0.039782
41.27 	0.043805 	4931 	0.042973
41.31 	0.040341 	4933 	0.039866
41.35 	0.043742 	4938 	0.042793
41.39 	0.044598 	4933 	0.044004
41.43 	0.040982 	4929 	0.040863
41.47 	0.042631 	4926 	0.042274
41.51 	0.040688 	4940 	0.040451
41.55 	0.040324 	4935 	0.040087
41.59 	0.042773 	4933 	0.042179
41.63 	0.043135 	4938 	0.042779
41.67 	0.040486 	4940 	0.039656
41.71 	0.042359 	4934 	0.041647
41.75 	0.040170 	4929 	0.039814
41.79 	0.039239 	4944 	0.038766
41.83 	0.037946 	4928 	0.037828
41.87 	0.041945 	4935 	0.041214
41.91 	0.042139 	4936 	0.041546
41.95 	0.040357 	4931 	0.040119
41.99 	0.043221 	4905 	0.042744
42.03 	0.042519 	4939 	0.041926
42.07 	0.040916 	4937 	0.039848
42.11 	0.039636 	4945 	0.039518
42.15 	0.039490 	4938 	0.039252
42.19 	0.037897 	4908 	0.037181
42.23 	0.037817 	4892 	0.037338
42.27 	0.041444 	4874 	0.041204
42.31 	0.042636 	4855 	0.042395
42.35 	0.035965 	4838 	0.035602
42.39 	0.037052 	4804 	0.036931
42.43 	0.041319 	4792 	0.040830
42.47 	0.040504 	4765 	0.040381
42.51 	0.032680 	4743 	0.032556
42.55 	0.041631 	4708 	0.041382
42.59 	0.039966 	4729 	0.039347
42.63 	0.040985 	4709 	0.040612
42.67 	0.036080 	4684 	0.035705
42.71 	0.037744 	4663 	0.037241
42.75 	0.037470 	4617 	0.037090
42.79 	0.038411 	4582 	0.038028
42.83 	0.036596 	4536 	0.036209
42.87 	0.040453 	4499 	0.039933
42.91 	0.039722 	4456 	0.039459
42.95 	0.044384 	4416 	0.043986
42.99 	0.045154 	4385 	0.044620
43.03 	0.037157 	4333 	0.036751
43.07 	0.039572 	4296 	0.038481
43.11 	0.040423 	4255 	0.039459
43.15 	0.032097 	4206 	0.031679
43.19 	0.040773 	4194 	0.040354
43.23 	0.040202 	4154 	0.039215
43.27 	0.035323 	4105 	0.034752
43.31 	0.037509 	4079 	0.036791
43.35 	0.035466 	4032 	0.034595
43.39 	0.031484 	4002 	0.031338
43.43 	0.039394 	3960 	0.039246
43.47 	0.038001 	3921 	0.037851
43.51 	0.034305 	3877 	0.033549
43.55 	0.039136 	2964 	0.038543
43.59 	0.040092 	1746 	0.039085
43.63 	0.030969 	1001 	0.030969
43.67 	0.041833 	502 	0.039499
43.71 	0.025105 	239 	0.025105
43.75 	0.125000 	16 	0.125000

File: 25SC_s1_0032.003.dat
#F C:\frames\spec\25SC_s1_0032.003
#C title =s:32 frm:3 25SC_s1
#C wavelength =0.15406

#S 1  fr_average C:\frames\spec\25SC_s1_0032.003 C:\win32app\speccom\mask.axs chi 0 180 0 360 0.02
#C 2 theta =0.000000 to 180 deg
#C   q   =0.000000 to 81.568 nm^-1
#C  chi  =0.000000 to 360 deg
#C collumns:
#C  1 position (2theta or chi in degrees)
#C  2 average intensity (sum of all counts in the region divided with number of pixels)
#C  3 Number of pixels in region)
#C  4 error (sum of sqrt(intensity) for all pixels divided by number)
#N 4
#L TTh  Int  N_pix  Err
32.99 	0.065574 	61 	0.065574
33.03 	0.063983 	1391 	0.063562
33.07 	0.054634 	2050 	0.054063
33.11 	0.055060 	2579 	0.053924
33.15 	0.056686 	2999 	0.055514
33.19 	0.063136 	3342 	0.061909
33.23 	0.063298 	3523 	0.062134
33.27 	0.056474 	3630 	0.055183
33.31 	0.059563 	3660 	0.058763
33.35 	0.063075 	3694 	0.061648
33.39 	0.059265 	3729 	0.058323
33.43 	0.053975 	3761 	0.053040
33.47 	0.056872 	3798 	0.056255
33.51 	0.055308 	3815 	0.054694
33.55 	0.061410 	3843 	0.060496
33.59 	0.062887 	3880 	0.062585
33.63 	0.059709 	3919 	0.058513
33.67 	0.061710 	3954 	0.060821
33.71 	0.063145 	3975 	0.062260
33.75 	0.060515 	3999 	0.059026
33.79 	0.059391 	4041 	0.057942
33.83 	0.059753 	4050 	0.058596
33.87 	0.057893 	4111 	0.057466
33.91 	0.063630 	4149 	0.062500
33.95 	0.062186 	4181 	0.060925
33.99 	0.056190 	4200 	0.054935
34.03 	0.060320 	4244 	0.059216
34.07 	0.053421 	4268 	0.052460
34.11 	0.059507 	4302 	0.058146
34.15 	0.055184 	4331 	0.054372
34.19 	0.058001 	4362 	0.057061
34.23 	0.066697 	4393 	0.065897
34.27 	0.066033 	4422 	0.064576
34.31 	0.060341 	4458 	0.059553
34.35 	0.060883 	4484 	0.060099
34.39 	0.051088 	4502 	0.050438
34.43 	0.051333 	4539 	0.050171
34.47 	0.059451 	4592 	0.058431
34.51 	0.055580 	4606 	0.054562
34.55 	0.051475 	4643 	0.050845
34.59 	0.055615 	4675 	0.054988
34.63 	0.055839 	4710 	0.055217
34.67 	0.060747 	4741 	0.060376
34.71 	0.059169 	4766 	0.058432
34.75 	0.057196 	4808 	0.055978
34.79 	0.050580 	4824 	0.049488
34.83 	0.058618 	4862 	0.057293
34.87 	0.057108 	4868 	0.056226
34.91 	0.061041 	4882 	0.060201
34.95 	0.058282 	4890 	0.057444
34.99 	0.058607 	4897 	0.057291
35.03 	0.056646 	4943 	0.055342
35.07 	0.055061 	4940 	0.054349
35.11 	0.059834 	4947 	0.058887
35.15 	0.058538 	4937 	0.058182
35.19 	0.063739 	4942 	0.062436
35.23 	0.056218 	4945 	0.054896
35.27 	0.055174 	4948 	0.054700
35.31 	0.058788 	4933 	0.058194
35.35 	0.055848 	4942 	0.054544
35.39 	0.053387 	4945 	0.052795
35.43 	0.057977 	4933 	0.057264
35.47 	0.050902 	4931 	0.050427
35.51 	0.057856 	4926 	0.056429
35.55 	0.055612 	4945 	0.054901
35.59 	0.061476 	4945 	0.060055
35.63 	0.061097 	4943 	0.060741
35.67 	0.056657 	4942 	0.055709
35.71 	0.057525 	4937 	0.057169
35.75 	0.054147 	4931 	0.053316
35.79 	0.065491 	4932 	0.064422
35.83 	0.052366 	4946 	0.051418
35.87 	0.051595 	4923 	0.051238
35.91 	0.057033 	4927 	0.056438
35.95 	0.046776 	4917 	0.046300
35.99 	0.059729 	4939 	0.059136
36.03 	0.057253 	4943 	0.056167
36.07 	0.055679 	4939 	0.054730
36.11 	0.057010 	4929 	0.055940
36.15 	0.055274 	4939 	0.054088
36.19 	0.059919 	4940 	0.059089
36.23 	0.054711 	4935 	0.054118
36.27 	0.059289 	4925 	0.057605
36.31 	0.057630 	4928 	0.057154
36.35 	0.054169 	4929 	0.053337
36.39 	0.051006 	4921 	0.050292
36.43 	0.057224 	4928 	0.056511
36.47 	0.055308 	4936 	0.054695
36.51 	0.053923 	4933 	0.053072
36.55 	0.054597 	4927 	0.054122
36.59 	0.052237 	4939 	0.051032
36.63 	0.055567 	4931 	0.055210
36.67 	0.046856 	4930 	0.046737
36.71 	0.049583 	4921 	0.049226
36.75 	0.055016 	4944 	0.054424
36.79 	0.053241 	4921 	0.052765
36.83 	0.054934 	4915 	0.054100
36.87 	0.045914 	4944 	0.045322
36.91 	0.051407 	4941 	0.050932
36.95 	0.054328 	4933 	0.053002
36.99 	0.050456 	4935 	0.049506
37.03 	0.053209 	4924 	0.052733
37.07 	0.053495 	4935 	0.052902
37.11 	0.051064 	4935 	0.050352
37.15 	0.054390 	4909 	0.053913
37.19 	0.052792 	4925 	0.051602
37.23 	0.051240 	4918 	0.050764
37.27 	0.046179 	4894 	0.045581
37.31 	0.049240 	4935 	0.048647
37.35 	0.047185 	4938 	0.046829
37.39 	0.052930 	4931 	0.052099
37.43 	0.051500 	4932 	0.051025
37.47 	0.053763 	4929 	0.053150
37.51 	0.045408 	4933 	0.045052
37.55 	0.054158 	4930 	0.053445
37.59 	0.052492 	4915 	0.051896
37.63 	0.049604 	4919 	0.049484
37.67 	0.053834 	4904 	0.053117
37.71 	0.052343 	4929 	0.051749
37.75 	0.053441 	4940 	0.052848
37.79 	0.049290 	4930 	0.048696
37.83 	0.048171 	4920 	0.047456
37.87 	0.052035 	4939 	0.051442
37.91 	0.052333 	4930 	0.051382
37.95 	0.052835 	4921 	0.052359
37.99 	0.050081 	4912 	0.049485
38.03 	0.059075 	4909 	0.058359
38.07 	0.051334 	4909 	0.050022
38.11 	0.052888 	4935 	0.051701
38.15 	0.051240 	4918 	0.050407
38.19 	0.051318 	4930 	0.050249
38.23 	0.058121 	4938 	0.057290
38.27 	0.049087 	4930 	0.047899
38.31 	0.057033 	4927 	0.055963
38.35 	0.059050 	4928 	0.057981
38.39 	0.058464 	4909 	0.057629
38.43 	0.055533 	4916 	0.054580
38.47 	0.050132 	4907 	0.049536
38.51 	0.059813 	4932 	0.058982
38.55 	0.053282 	4936 	0.052194
38.59 	0.050975 	4924 	0.050618
38.63 	0.057474 	4924 	0.056641
38.67 	0.056512 	4937 	0.055444
38.71 	0.054630 	4924 	0.053203
38.75 	0.050538 	4927 	0.049943
38.79 	0.048237 	4934 	0.047643
38.83 	0.044725 	4919 	0.044367
38.87 	0.050295 	4911 	0.049580
38.91 	0.050377 	4903 	0.049422
38.95 	0.047784 	4918 	0.047307
38.99 	0.043751 	4937 	0.043277
39.03 	0.049655 	4934 	0.048943
39.07 	0.047929 	4924 	0.047453
39.11 	0.049077 	4931 	0.048246
39.15 	0.051679 	4915 	0.050725
39.19 	0.048810 	4917 	0.048095
39.23 	0.047513 	4925 	0.046680
39.27 	0.046436 	4910 	0.046317
39.31 	0.052007 	4884 	0.051167
39.35 	0.049645 	4935 	0.049171
39.39 	0.046460 	4929 	0.045747
39.43 	0.041962 	4933 	0.041131
39.47 	0.045704 	4923 	0.045466
39.51 	0.049350 	4924 	0.048874
39.55 	0.049807 	4919 	0.048973
39.59 	0.044992 	4912 	0.044257
39.63 	0.046119 	4922 	0.045643
39.67 	0.047832 	4913 	0.047236
39.71 	0.047600 	4895 	0.046642
39.75 	0.047687 	4928 	0.046973
39.79 	0.049330 	4926 	0.048735
39.83 	0.046413 	4934 	0.045582
39.87 	0.046701 	4925 	0.045868
39.91 	0.054043 	4922 	0.053686
39.95 	0.046592 	4915 	0.045877
39.99 	0.048459 	4932 	0.047746
40.03 	0.047281 	4928 	0.046211
40.07 	0.049360 	4923 	0.048408
40.11 	0.041090 	4916 	0.040852
40.15 	0.046000 	4913 	0.045285
40.19 	0.044025 	4929 	0.043074
40.23 	0.045215 	4932 	0.044621
40.27 	0.045169 	4937 	0.045050
40.31 	0.044341 	4939 	0.043867
40.35 	0.050010 	4919 	0.049653
40.39 	0.040560 	4931 	0.040203
40.43 	0.045713 	4922 	0.044880
40.47 	0.048190 	4918 	0.047952
40.51 	0.041853 	4922 	0.041615
40.55 	0.043195 	4908 	0.042598
40.59 	0.044967 	4937 	0.044373
40.63 	0.048073 	4930 	0.047479
40.67 	0.040146 	4932 	0.039552
40.71 	0.047445 	4932 	0.046614
40.75 	0.043805 	4931 	0.043092
40.79 	0.051990 	4924 	0.051514
40.83 	0.052354 	4928 	0.051997
40.87 	0.041802 	4928 	0.041445
40.91 	0.043063 	4923 	0.042349
40.95 	0.052107 	4913 	0.051272
40.99 	0.054224 	4924 	0.053510
41.03 	0.046075 	4905 	0.045339
41.07 	0.044828 	4930 	0.044352
41.11 	0.043364 	4935 	0.042770
41.15 	0.044728 	4941 	0.044609
41.19 	0.040568 	4930 	0.040093
41.23 	0.042924 	4939 	0.042331
41.27 	0.046846 	4931 	0.046134
41.31 	0.044598 	4933 	0.044123
41.35 	0.042325 	4938 	0.042206
41.39 	0.040949 	4933 	0.040474
41.43 	0.041185 	4929 	0.040234
41.47 	0.041210 	4926 	0.040734
41.51 	0.042915 	4940 	0.042678
41.55 	0.044782 	4935 	0.044545
41.59 	0.042773 	4933 	0.041942
41.63 	0.043337 	4938 	0.043100
41.67 	0.042308 	4940 	0.042189
41.71 	0.044386 	4934 	0.043555
41.75 	0.045851 	4929 	0.044900
41.79 	0.041869 	4944 	0.041158
41.83 	0.045049 	4928 	0.044573
41.87 	0.040729 	4935 	0.040492
41.91 	0.048420 	4936 	0.047945
41.95 	0.043805 	4931 	0.043329
41.99 	0.043629 	4905 	0.043271
42.03 	0.041911 	4939 	0.041674
42.07 	0.042536 	4937 	0.042180
42.11 	0.038220 	4945 	0.037628
42.15 	0.043135 	4938 	0.042186
42.19 	0.043399 	4908 	0.043040
42.23 	0.040679 	4892 	0.040080
42.27 	0.042060 	4874 	0.041459
42.31 	0.045932 	4855 	0.045188
42.35 	0.042166 	4838 	0.041682
42.39 	0.041007 	4804 	0.040520
42.43 	0.042362 	4792 	0.041873
42.47 	0.043442 	4765 	0.043073
42.51 	0.042378 	4743 	0.041740
42.55 	0.040782 	4708 	0.040408
42.59 	0.040601 	4729 	0.040601
42.63 	0.041198 	4709 	0.040576
42.67 	0.044833 	4684 	0.044333
42.71 	0.043105 	4663 	0.042603
42.75 	0.039853 	4617 	0.039853
42.79 	0.038193 	4582 	0.037809
42.83 	0.043430 	4536 	0.043043
42.87 	0.040898 	4499 	0.040768
42.91 	0.042864 	4456 	0.042338
42.95 	0.038723 	4416 	0.038590
42.99 	0.043101 	4385 	0.042567
43.03 	0.039003 	4333 	0.038733
43.07 	0.040037 	4296 	0.039765
43.11 	0.040423 	4255 	0.040010
43.15 	0.036614 	4206 	0.036057
43.19 	0.044826 	4194 	0.044407
43.23 	0.042128 	4154 	0.041423
43.27 	0.044336 	4105 	0.043480
43.31 	0.043148 	4079 	0.042717
43.35 	0.043651 	4032 	0.043215
43.39 	0.041729 	4002 	0.041290
43.43 	0.039899 	3960 	0.039751
43.47 	0.042081 	3921 	0.041484
43.51 	0.040495 	3877 	0.040193
43.55 	0.041498 	2964 	0.040905
43.59 	0.042955 	1746 	0.042955
43.63 	0.046953 	1001 	0.045197
43.67 	0.033865 	502 	0.033865
43.71 	0.054393 	239 	0.054393
43.75 	0.000000 	16 	0.000000