Folder: Bessy-II-KMC-II-insitu-sin2psi/Example_Data (part 20)

File: 25SC_s1_0008.002.dat
#F C:\frames\spec\25SC_s1_0008.002
#C title =s:8 frm:2 25SC_s1
#C wavelength =0.15406

#S 1  fr_average C:\frames\spec\25SC_s1_0008.002 C:\win32app\speccom\mask.axs chi 0 180 0 360 0.02
#C 2 theta =0.000000 to 180 deg
#C   q   =0.000000 to 81.568 nm^-1
#C  chi  =0.000000 to 360 deg
#C collumns:
#C  1 position (2theta or chi in degrees)
#C  2 average intensity (sum of all counts in the region divided with number of pixels)
#C  3 Number of pixels in region)
#C  4 error (sum of sqrt(intensity) for all pixels divided by number)
#N 4
#L TTh  Int  N_pix  Err
32.99 	0.081967 	61 	0.081967
33.03 	0.059669 	1391 	0.059248
33.07 	0.066829 	2050 	0.066544
33.11 	0.062815 	2579 	0.061906
33.15 	0.060353 	2999 	0.059767
33.19 	0.057451 	3342 	0.056224
33.23 	0.061028 	3523 	0.060362
33.27 	0.054545 	3630 	0.053739
33.31 	0.059836 	3660 	0.059356
33.35 	0.057661 	3694 	0.056868
33.39 	0.058193 	3729 	0.057250
33.43 	0.063281 	3761 	0.062035
33.47 	0.056345 	3798 	0.055112
33.51 	0.059764 	3815 	0.058689
33.55 	0.057767 	3843 	0.056218
33.59 	0.062113 	3880 	0.060302
33.63 	0.057668 	3919 	0.056621
33.67 	0.056904 	3954 	0.055719
33.71 	0.058113 	3975 	0.056787
33.75 	0.065516 	3999 	0.064784
33.79 	0.062361 	4041 	0.061201
33.83 	0.053827 	4050 	0.052959
33.87 	0.053272 	4111 	0.052702
33.91 	0.059050 	4149 	0.057780
33.95 	0.055489 	4181 	0.053505
33.99 	0.056667 	4200 	0.055690
34.03 	0.061970 	4244 	0.061142
34.07 	0.057170 	4268 	0.056598
34.11 	0.064854 	4302 	0.063900
34.15 	0.064188 	4331 	0.063106
34.19 	0.059376 	4362 	0.058280
34.23 	0.055543 	4393 	0.054876
34.27 	0.049977 	4422 	0.049580
34.31 	0.052041 	4458 	0.051384
34.35 	0.057538 	4484 	0.055970
34.39 	0.051533 	4502 	0.050882
34.43 	0.057502 	4539 	0.056469
34.47 	0.060322 	4592 	0.059557
34.51 	0.062310 	4606 	0.060911
34.55 	0.052121 	4643 	0.050860
34.59 	0.058824 	4675 	0.057946
34.63 	0.057962 	4710 	0.056221
34.67 	0.059270 	4741 	0.058529
34.71 	0.065464 	4766 	0.063866
34.75 	0.054700 	4808 	0.053482
34.79 	0.059494 	4824 	0.058644
34.83 	0.062731 	4862 	0.061868
34.87 	0.055670 	4868 	0.054206
34.91 	0.063703 	4882 	0.062863
34.95 	0.057055 	4890 	0.056696
34.99 	0.057382 	4897 	0.056425
35.03 	0.055027 	4943 	0.054435
35.07 	0.058300 	4940 	0.057470
35.11 	0.059228 	4947 	0.058281
35.15 	0.065424 	4937 	0.064356
35.19 	0.062323 	4942 	0.061256
35.23 	0.063094 	4945 	0.061436
35.27 	0.054568 	4948 	0.053502
35.31 	0.058180 	4933 	0.057448
35.35 	0.054836 	4942 	0.054362
35.39 	0.056421 	4945 	0.055591
35.43 	0.062031 	4933 	0.060606
35.47 	0.056784 	4931 	0.056308
35.51 	0.057856 	4926 	0.056429
35.55 	0.057027 	4945 	0.056198
35.59 	0.061274 	4945 	0.060089
35.63 	0.053207 	4943 	0.052733
35.67 	0.056657 	4942 	0.055472
35.71 	0.056917 	4937 	0.056324
35.75 	0.057595 	4931 	0.056526
35.79 	0.061030 	4932 	0.059842
35.83 	0.054590 	4946 	0.053879
35.87 	0.055657 	4923 	0.055062
35.91 	0.061701 	4927 	0.060512
35.95 	0.058776 	4917 	0.058061
35.99 	0.060336 	4939 	0.059031
36.03 	0.064536 	4943 	0.063351
36.07 	0.054464 	4939 	0.053397
36.11 	0.060256 	4929 	0.059067
36.15 	0.061146 	4939 	0.059723
36.19 	0.058502 	4940 	0.057672
36.23 	0.058764 	4935 	0.058052
36.27 	0.059492 	4925 	0.058541
36.31 	0.061080 	4928 	0.060366
36.35 	0.057618 	4929 	0.056905
36.39 	0.055680 	4921 	0.054846
36.43 	0.059862 	4928 	0.058792
36.47 	0.056118 	4936 	0.055644
36.51 	0.059396 	4933 	0.057813
36.55 	0.063730 	4927 	0.062660
36.59 	0.060336 	4939 	0.059506
36.63 	0.050497 	4931 	0.049408
36.67 	0.062677 	4930 	0.061370
36.71 	0.054460 	4921 	0.053508
36.75 	0.052791 	4944 	0.051488
36.79 	0.052022 	4921 	0.051308
36.83 	0.063479 	4915 	0.062268
36.87 	0.059466 	4944 	0.058755
36.91 	0.055454 	4941 	0.054457
36.95 	0.058180 	4933 	0.056498
36.99 	0.061398 	4935 	0.060686
37.03 	0.054833 	4924 	0.054715
37.07 	0.058764 	4935 	0.058170
37.11 	0.053090 	4935 	0.052853
37.15 	0.063353 	4909 	0.061663
37.19 	0.065381 	4925 	0.063953
37.23 	0.055714 	4918 	0.055118
37.27 	0.060074 	4894 	0.058398
37.31 	0.050659 	4935 	0.050184
37.35 	0.057108 	4938 	0.056040
37.39 	0.055364 	4931 	0.054176
37.43 	0.053731 	4932 	0.052761
37.47 	0.057212 	4929 	0.055905
37.51 	0.052504 	4933 	0.051910
37.55 	0.056389 	4930 	0.055677
37.59 	0.052289 	4915 	0.051574
37.63 	0.055499 	4919 	0.054665
37.67 	0.045677 	4904 	0.045438
37.71 	0.049909 	4929 	0.049314
37.75 	0.054656 	4940 	0.054063
37.79 	0.054361 	4930 	0.053648
37.83 	0.056301 	4920 	0.055210
37.87 	0.055072 	4939 	0.053985
37.91 	0.053347 	4930 	0.052753
37.95 	0.048771 	4921 	0.047818
37.99 	0.047231 	4912 	0.046993
38.03 	0.053779 	4909 	0.052943
38.07 	0.056631 	4909 	0.055915
38.11 	0.054103 	4935 	0.053391
38.15 	0.056120 	4918 	0.055882
38.19 	0.055984 	4930 	0.055271
38.23 	0.055893 	4938 	0.054588
38.27 	0.059026 	4930 	0.057838
38.31 	0.058250 	4927 	0.057062
38.35 	0.059456 	4928 	0.057891
38.39 	0.056631 	4909 	0.055795
38.43 	0.056550 	4916 	0.055835
38.47 	0.052170 	4907 	0.051693
38.51 	0.064882 	4932 	0.063576
38.55 	0.068071 	4936 	0.066647
38.59 	0.059911 	4924 	0.059078
38.63 	0.064379 	4924 	0.063407
38.67 	0.065424 	4937 	0.064119
38.71 	0.068643 	4924 	0.067811
38.75 	0.058047 	4927 	0.057096
38.79 	0.060600 	4934 	0.059650
38.83 	0.050823 	4919 	0.050109
38.87 	0.055386 	4911 	0.054551
38.91 	0.060779 	4903 	0.059345
38.95 	0.051240 	4918 	0.049454
38.99 	0.050030 	4937 	0.049062
39.03 	0.050263 	4934 	0.049551
39.07 	0.048944 	4924 	0.048111
39.11 	0.046441 	4931 	0.046203
39.15 	0.048627 	4915 	0.047892
39.19 	0.048403 	4917 	0.047808
39.23 	0.048122 	4925 	0.046813
39.27 	0.047658 	4910 	0.046703
39.31 	0.040745 	4884 	0.040625
39.35 	0.044782 	4935 	0.044189
39.39 	0.046257 	4929 	0.045425
39.43 	0.043989 	4933 	0.043514
39.47 	0.045094 	4923 	0.044381
39.51 	0.044273 	4924 	0.043559
39.55 	0.047774 	4919 	0.047059
39.59 	0.048860 	4912 	0.047906
39.63 	0.048557 	4922 	0.047724
39.67 	0.042744 	4913 	0.042505
39.71 	0.043514 	4895 	0.043274
39.75 	0.039164 	4928 	0.038807
39.79 	0.048721 	4926 	0.047770
39.83 	0.049250 	4934 	0.048300
39.87 	0.045076 	4925 	0.044006
39.91 	0.047948 	4922 	0.047472
39.95 	0.043337 	4915 	0.042741
39.99 	0.040146 	4932 	0.039552
40.03 	0.042614 	4928 	0.041782
40.07 	0.045907 	4923 	0.045788
40.11 	0.045769 	4916 	0.045173
40.15 	0.045593 	4913 	0.044997
40.19 	0.047677 	4929 	0.047320
40.23 	0.043390 	4932 	0.043034
40.27 	0.048613 	4937 	0.048138
40.31 	0.041506 	4939 	0.041032
40.35 	0.040862 	4919 	0.040386
40.39 	0.040154 	4931 	0.039323
40.43 	0.040228 	4922 	0.039751
40.47 	0.044937 	4918 	0.044322
40.51 	0.044697 	4922 	0.044340
40.55 	0.042584 	4908 	0.041509
40.59 	0.045169 	4937 	0.044695
40.63 	0.042191 	4930 	0.041339
40.67 	0.046634 	4932 	0.045803
40.71 	0.047040 	4932 	0.046683
40.75 	0.046846 	4931 	0.046352
40.79 	0.042039 	4924 	0.041801
40.83 	0.049310 	4928 	0.048597
40.87 	0.043628 	4928 	0.043272
40.91 	0.042251 	4923 	0.041894
40.95 	0.042133 	4913 	0.041418
40.99 	0.045695 	4924 	0.045100
41.03 	0.036493 	4905 	0.035896
41.07 	0.043205 	4930 	0.043086
41.11 	0.033840 	4935 	0.033484
41.15 	0.042097 	4941 	0.041504
41.19 	0.049696 	4930 	0.049339
41.23 	0.041911 	4939 	0.041318
41.27 	0.041371 	4931 	0.040777
41.31 	0.039732 	4933 	0.039495
41.35 	0.043540 	4938 	0.042947
41.39 	0.049666 	4933 	0.048953
41.43 	0.043417 	4929 	0.042822
41.47 	0.045879 	4926 	0.045166
41.51 	0.045142 	4940 	0.044905
41.55 	0.036879 	4935 	0.036642
41.59 	0.039530 	4933 	0.039055
41.63 	0.045362 	4938 	0.044651
41.67 	0.040891 	4940 	0.040772
41.71 	0.038306 	4934 	0.037831
41.75 	0.043011 	4929 	0.042773
41.79 	0.041464 	4944 	0.040753
41.83 	0.043222 	4928 	0.042490
41.87 	0.039311 	4935 	0.038836
41.91 	0.043558 	4936 	0.042964
41.95 	0.043602 	4931 	0.042889
41.99 	0.042813 	4905 	0.041858
42.03 	0.042114 	4939 	0.041758
42.07 	0.041928 	4937 	0.041572
42.11 	0.039434 	4945 	0.038841
42.15 	0.036249 	4938 	0.035894
42.19 	0.043806 	4908 	0.043209
42.23 	0.042723 	4892 	0.042364
42.27 	0.035700 	4874 	0.035339
42.31 	0.041401 	4855 	0.040677
42.35 	0.042993 	4838 	0.042751
42.39 	0.038510 	4804 	0.037900
42.43 	0.040484 	4792 	0.040117
42.47 	0.036306 	4765 	0.035938
42.51 	0.041113 	4743 	0.040496
42.55 	0.041631 	4708 	0.041258
42.59 	0.040178 	4729 	0.039434
42.63 	0.039074 	4709 	0.038328
42.67 	0.041418 	4684 	0.040792
42.71 	0.039460 	4663 	0.039208
42.75 	0.036820 	4617 	0.036440
42.79 	0.035137 	4582 	0.034882
42.83 	0.036596 	4536 	0.036209
42.87 	0.040231 	4499 	0.039580
42.91 	0.038824 	4456 	0.038298
42.95 	0.037817 	4416 	0.037132
42.99 	0.037172 	4385 	0.036638
43.03 	0.037157 	4333 	0.037022
43.07 	0.040037 	4296 	0.039628
43.11 	0.037838 	4255 	0.037012
43.15 	0.039467 	4206 	0.039050
43.19 	0.038865 	4194 	0.038027
43.23 	0.039721 	4154 	0.038851
43.27 	0.038002 	4105 	0.037432
43.31 	0.042412 	4079 	0.041838
43.35 	0.039435 	4032 	0.038563
43.39 	0.035482 	4002 	0.034750
43.43 	0.038131 	3960 	0.037835
43.47 	0.038766 	3921 	0.038019
43.51 	0.037658 	3877 	0.037356
43.55 	0.034076 	2964 	0.033878
43.59 	0.041810 	1746 	0.041474
43.63 	0.046953 	1001 	0.046953
43.67 	0.029880 	502 	0.029880
43.71 	0.033473 	239 	0.033473
43.75 	0.125000 	16 	0.125000

File: 25SC_s1_0008.003.dat
#F C:\frames\spec\25SC_s1_0008.003
#C title =s:8 frm:3 25SC_s1
#C wavelength =0.15406

#S 1  fr_average C:\frames\spec\25SC_s1_0008.003 C:\win32app\speccom\mask.axs chi 0 180 0 360 0.02
#C 2 theta =0.000000 to 180 deg
#C   q   =0.000000 to 81.568 nm^-1
#C  chi  =0.000000 to 360 deg
#C collumns:
#C  1 position (2theta or chi in degrees)
#C  2 average intensity (sum of all counts in the region divided with number of pixels)
#C  3 Number of pixels in region)
#C  4 error (sum of sqrt(intensity) for all pixels divided by number)
#N 4
#L TTh  Int  N_pix  Err
32.99 	0.065574 	61 	0.055971
33.03 	0.065421 	1391 	0.064157
33.07 	0.066341 	2050 	0.065484
33.11 	0.066693 	2579 	0.065784
33.15 	0.068356 	2999 	0.067379
33.19 	0.061341 	3342 	0.060114
33.23 	0.055634 	3523 	0.055136
33.27 	0.067218 	3630 	0.066411
33.31 	0.057923 	3660 	0.057123
33.35 	0.063617 	3694 	0.062507
33.39 	0.058461 	3729 	0.057361
33.43 	0.058495 	3761 	0.057405
33.47 	0.063718 	3798 	0.062021
33.51 	0.056881 	3815 	0.055652
33.55 	0.054645 	3843 	0.053730
33.59 	0.065722 	3880 	0.064212
33.63 	0.058433 	3919 	0.057387
33.67 	0.058675 	3954 	0.057638
33.71 	0.053082 	3975 	0.052198
33.75 	0.059265 	3999 	0.058239
33.79 	0.061371 	4041 	0.060042
33.83 	0.060741 	4050 	0.060018
33.87 	0.055218 	4111 	0.054363
33.91 	0.064835 	4149 	0.063141
33.95 	0.057403 	4181 	0.055721
33.99 	0.060476 	4200 	0.059639
34.03 	0.060556 	4244 	0.059452
34.07 	0.062090 	4268 	0.061266
34.11 	0.062529 	4302 	0.061167
34.15 	0.061418 	4331 	0.060741
34.19 	0.055479 	4362 	0.054405
34.23 	0.065786 	4393 	0.064320
34.27 	0.067616 	4422 	0.066159
34.31 	0.055406 	4458 	0.055275
34.35 	0.058653 	4484 	0.058130
34.39 	0.057308 	4502 	0.056397
34.43 	0.053977 	4539 	0.053589
34.47 	0.056838 	4592 	0.056200
34.51 	0.058185 	4606 	0.057168
34.55 	0.067629 	4643 	0.066746
34.59 	0.060321 	4675 	0.059193
34.63 	0.056900 	4710 	0.056278
34.67 	0.061379 	4741 	0.060020
34.71 	0.061687 	4766 	0.060581
34.75 	0.063644 	4808 	0.062913
34.79 	0.059080 	4824 	0.058351
34.83 	0.058412 	4862 	0.057810
34.87 	0.063270 	4868 	0.062288
34.91 	0.058378 	4882 	0.057298
34.95 	0.060327 	4890 	0.059249
34.99 	0.060854 	4897 	0.059777
35.03 	0.058669 	4943 	0.058076
35.07 	0.062753 	4940 	0.061686
35.11 	0.055994 	4947 	0.055264
35.15 	0.059348 	4937 	0.058636
35.19 	0.057264 	4942 	0.055842
35.23 	0.059858 	4945 	0.058536
35.27 	0.064268 	4948 	0.062828
35.31 	0.058585 	4933 	0.057873
35.35 	0.062525 	4942 	0.061221
35.39 	0.061881 	4945 	0.060933
35.43 	0.060409 	4933 	0.059934
35.47 	0.063070 	4931 	0.062120
35.51 	0.050751 	4926 	0.049800
35.55 	0.062083 	4945 	0.060543
35.59 	0.061881 	4945 	0.061288
35.63 	0.061906 	4943 	0.060820
35.67 	0.064751 	4942 	0.063921
35.71 	0.060766 	4937 	0.059816
35.75 	0.056175 	4931 	0.055106
35.79 	0.061436 	4932 	0.060248
35.83 	0.057622 	4946 	0.056675
35.87 	0.057892 	4923 	0.057178
35.91 	0.057033 	4927 	0.055725
35.95 	0.059386 	4917 	0.058194
35.99 	0.052237 	4939 	0.051288
36.03 	0.059680 	4943 	0.058495
36.07 	0.057299 	4939 	0.056469
36.11 	0.066545 	4929 	0.065000
36.15 	0.059121 	4939 	0.057916
36.19 	0.061336 	4940 	0.060387
36.23 	0.065248 	4935 	0.064061
36.27 	0.063553 	4925 	0.062463
36.31 	0.060065 	4928 	0.059114
36.35 	0.061473 	4929 	0.060760
36.39 	0.053038 	4921 	0.052205
36.43 	0.061891 	4928 	0.060683
36.47 	0.061791 	4936 	0.060229
36.51 	0.059396 	4933 	0.058446
36.55 	0.060889 	4927 	0.060176
36.59 	0.060741 	4939 	0.059318
36.63 	0.059623 	4931 	0.058653
36.67 	0.056998 	4930 	0.056760
36.71 	0.060557 	4921 	0.059604
36.75 	0.059871 	4944 	0.058567
36.79 	0.054867 	4921 	0.053677
36.83 	0.055341 	4915 	0.054249
36.87 	0.067961 	4944 	0.066539
36.91 	0.056669 	4941 	0.056076
36.95 	0.053112 	4933 	0.052755
36.99 	0.058156 	4935 	0.057206
37.03 	0.068440 	4924 	0.067112
37.07 	0.058156 	4935 	0.057444
37.11 	0.048835 	4935 	0.048123
37.15 	0.051131 	4909 	0.050534
37.19 	0.050355 	4925 	0.048571
37.23 	0.054087 	4918 	0.052757
37.27 	0.053126 	4894 	0.052408
37.31 	0.055319 	4935 	0.054825
37.35 	0.055488 	4938 	0.053946
37.39 	0.052525 	4931 	0.051456
37.43 	0.053933 	4932 	0.052865
37.47 	0.056807 	4929 	0.055975
37.51 	0.057977 	4933 	0.057502
37.55 	0.060446 	4930 	0.059733
37.59 	0.055748 	4915 	0.055390
37.63 	0.054076 	4919 	0.053242
37.67 	0.057504 	4904 	0.055951
37.71 	0.056807 	4929 	0.055618
37.75 	0.052632 	4940 	0.051802
37.79 	0.063489 	4930 	0.062400
37.83 	0.050610 	4920 	0.050134
37.87 	0.053655 	4939 	0.053299
37.91 	0.052333 	4930 	0.051026
37.95 	0.056899 	4921 	0.056066
37.99 	0.054764 	4912 	0.054168
38.03 	0.055205 	4909 	0.054727
38.07 	0.054797 	4909 	0.054201
38.11 	0.047822 	4935 	0.047090
38.15 	0.051240 	4918 	0.050168
38.19 	0.059838 	4930 	0.058887
38.23 	0.054881 	4938 	0.053813
38.27 	0.052941 	4930 	0.052090
38.31 	0.060686 	4927 	0.059953
38.35 	0.054586 	4928 	0.053754
38.39 	0.061316 	4909 	0.060103
38.43 	0.062042 	4916 	0.060255
38.47 	0.061545 	4907 	0.059873
38.51 	0.065085 	4932 	0.064135
38.55 	0.066045 	4936 	0.064503
38.59 	0.063160 	4924 	0.062089
38.63 	0.057271 	4924 	0.056676
38.67 	0.061171 	4937 	0.060103
38.71 	0.051990 	4924 	0.051039
38.75 	0.057642 	4927 	0.057404
38.79 	0.053709 	4934 	0.052759
38.83 	0.055499 	4919 	0.054904
38.87 	0.058033 	4911 	0.056721
38.91 	0.050377 	4903 	0.049660
38.95 	0.055307 	4918 	0.055069
38.99 	0.048815 	4937 	0.047985
39.03 	0.048034 	4934 	0.047322
39.07 	0.051584 	4924 	0.049741
39.11 	0.052930 	4931 	0.051980
39.15 	0.056765 	4915 	0.056169
39.19 	0.049014 	4917 	0.048537
39.23 	0.050964 	4925 	0.050132
39.27 	0.051120 	4910 	0.049927
39.31 	0.049959 	4884 	0.049000
39.35 	0.048430 	4935 	0.047480
39.39 	0.051735 	4929 	0.051259
39.43 	0.051490 	4933 	0.050659
39.47 	0.045094 	4923 	0.044618
39.51 	0.044882 	4924 	0.044406
39.55 	0.047977 	4919 	0.047620
39.59 	0.047638 	4912 	0.047042
39.63 	0.047338 	4922 	0.046624
39.67 	0.050682 	4913 	0.050086
39.71 	0.053524 	4895 	0.053165
39.75 	0.048701 	4928 	0.047750
39.79 	0.051360 	4926 	0.051003
39.83 	0.049250 	4934 	0.048162
39.87 	0.048528 	4925 	0.047914
39.91 	0.048354 	4922 	0.047878
39.95 	0.051475 	4915 	0.050879
39.99 	0.045418 	4932 	0.044705
40.03 	0.052354 	4928 	0.051997
40.07 	0.049766 	4923 	0.049052
40.11 	0.052278 	4916 	0.051563
40.15 	0.046407 	4913 	0.045573
40.19 	0.045648 	4929 	0.045411
40.23 	0.042376 	4932 	0.041782
40.27 	0.049625 	4937 	0.049507
40.31 	0.047580 	4939 	0.046394
40.35 	0.051433 	4919 	0.050719
40.39 	0.040560 	4931 	0.039966
40.43 	0.050386 	4922 	0.049315
40.47 	0.046564 	4918 	0.046068
40.51 	0.047135 	4922 	0.046421
40.55 	0.048900 	4908 	0.048542
40.59 	0.049220 	4937 	0.049102
40.63 	0.050101 	4930 	0.049032
40.67 	0.045620 	4932 	0.044789
40.71 	0.041768 	4932 	0.041293
40.75 	0.045427 	4931 	0.044952
40.79 	0.047522 	4924 	0.047165
40.83 	0.049716 	4928 	0.049122
40.87 	0.047890 	4928 	0.047295
40.91 	0.047126 	4923 	0.046412
40.95 	0.044576 	4913 	0.043741
40.99 	0.049350 	4924 	0.048755
41.03 	0.053211 	4905 	0.051897
41.07 	0.052130 	4930 	0.051160
41.11 	0.047822 	4935 	0.047466
41.15 	0.044728 	4941 	0.044135
41.19 	0.043205 	4930 	0.042373
41.23 	0.049200 	4939 	0.048133
41.27 	0.044413 	4931 	0.043819
41.31 	0.044395 	4933 	0.043188
41.35 	0.046375 	4938 	0.046138
41.39 	0.048855 	4933 	0.048142
41.43 	0.047880 	4929 	0.047523
41.47 	0.043443 	4926 	0.043086
41.51 	0.045951 	4940 	0.045359
41.55 	0.048024 	4935 	0.047550
41.59 	0.049666 	4933 	0.048834
41.63 	0.046375 	4938 	0.045881
41.67 	0.046356 	4940 	0.045507
41.71 	0.043575 	4934 	0.042744
41.75 	0.050923 	4929 	0.050329
41.79 	0.046319 	4944 	0.045963
41.83 	0.047281 	4928 	0.046805
41.87 	0.046403 	4935 	0.045928
41.91 	0.047002 	4936 	0.046408
41.95 	0.043805 	4931 	0.042854
41.99 	0.045260 	4905 	0.044543
42.03 	0.040089 	4939 	0.039733
42.07 	0.043346 	4937 	0.042516
42.11 	0.044894 	4945 	0.044164
42.15 	0.043337 	4938 	0.043100
42.19 	0.042176 	4908 	0.041699
42.23 	0.040270 	4892 	0.040150
42.27 	0.044727 	4874 	0.044106
42.31 	0.043872 	4855 	0.042887
42.35 	0.043200 	4838 	0.042332
42.39 	0.044963 	4804 	0.044597
42.43 	0.048205 	4792 	0.047227
42.47 	0.040714 	4765 	0.040591
42.51 	0.044065 	4743 	0.043571
42.55 	0.043118 	4708 	0.042869
42.59 	0.042504 	4729 	0.042008
42.63 	0.044595 	4709 	0.043849
42.67 	0.051025 	4684 	0.049899
42.71 	0.045250 	4663 	0.044999
42.75 	0.044401 	4617 	0.043640
42.79 	0.040157 	4582 	0.039518
42.83 	0.043651 	4536 	0.043263
42.87 	0.043343 	4499 	0.043083
42.91 	0.035233 	4456 	0.034839
42.95 	0.048687 	4416 	0.047073
42.99 	0.043786 	4385 	0.043251
43.03 	0.036464 	4333 	0.036329
43.07 	0.043063 	4296 	0.042109
43.11 	0.042538 	4255 	0.041414
43.15 	0.043747 	4206 	0.043468
43.19 	0.044111 	4194 	0.043552
43.23 	0.042128 	4154 	0.041705
43.27 	0.043605 	4105 	0.042749
43.31 	0.045109 	4079 	0.044678
43.35 	0.042411 	4032 	0.041830
43.39 	0.046227 	4002 	0.045788
43.43 	0.042677 	3960 	0.042381
43.47 	0.045397 	3921 	0.044500
43.51 	0.039721 	3877 	0.039268
43.55 	0.036100 	2964 	0.035902
43.59 	0.036082 	1746 	0.036082
43.63 	0.042957 	1001 	0.042372
43.67 	0.047809 	502 	0.047809
43.71 	0.037657 	239 	0.037657
43.75 	0.000000 	16 	0.000000