Folder: Bessy-II-KMC-II-insitu-sin2psi/Example_Data (part 87)

File: 25SC_s1_0035.001.dat
#F C:\frames\spec\25SC_s1_0035.001
#C title =s:35 frm:1 25SC_s1
#C wavelength =0.15406

#S 1  fr_average C:\frames\spec\25SC_s1_0035.001 C:\win32app\speccom\mask.axs chi 0 180 0 360 0.02
#C 2 theta =0.000000 to 180 deg
#C   q   =0.000000 to 81.568 nm^-1
#C  chi  =0.000000 to 360 deg
#C collumns:
#C  1 position (2theta or chi in degrees)
#C  2 average intensity (sum of all counts in the region divided with number of pixels)
#C  3 Number of pixels in region)
#C  4 error (sum of sqrt(intensity) for all pixels divided by number)
#N 4
#L TTh  Int  N_pix  Err
32.99 	0.032787 	61 	0.032787
33.03 	0.063983 	1391 	0.063562
33.07 	0.060976 	2050 	0.058975
33.11 	0.061264 	2579 	0.060356
33.15 	0.053351 	2999 	0.053156
33.19 	0.055057 	3342 	0.053830
33.23 	0.059324 	3523 	0.057662
33.27 	0.057025 	3630 	0.056218
33.31 	0.057923 	3660 	0.056643
33.35 	0.061722 	3694 	0.060929
33.39 	0.057656 	3729 	0.056557
33.43 	0.060622 	3761 	0.058416
33.47 	0.057925 	3798 	0.056691
33.51 	0.052425 	3815 	0.052118
33.55 	0.060630 	3843 	0.060020
33.59 	0.062371 	3880 	0.060710
33.63 	0.055116 	3919 	0.054817
33.67 	0.052858 	3954 	0.051525
33.71 	0.059371 	3975 	0.058021
33.75 	0.059265 	3999 	0.058679
33.79 	0.052957 	4041 	0.052522
33.83 	0.061481 	4050 	0.060614
33.87 	0.055947 	4111 	0.054950
33.91 	0.056640 	4149 	0.055793
33.95 	0.060990 	4181 	0.060150
33.99 	0.058571 	4200 	0.057595
34.03 	0.053252 	4244 	0.052147
34.07 	0.054827 	4268 	0.054278
34.11 	0.055788 	4302 	0.054290
34.15 	0.059801 	4331 	0.058990
34.19 	0.052499 	4362 	0.051425
34.23 	0.062372 	4393 	0.061550
34.27 	0.058118 	4422 	0.057059
34.31 	0.053387 	4458 	0.053256
34.35 	0.059545 	4484 	0.058761
34.39 	0.056641 	4502 	0.055861
34.43 	0.062789 	4539 	0.062015
34.47 	0.061629 	4592 	0.060353
34.51 	0.049935 	4606 	0.048790
34.55 	0.053844 	4643 	0.053466
34.59 	0.056898 	4675 	0.056147
34.63 	0.053079 	4710 	0.052208
34.67 	0.058216 	4741 	0.057721
34.71 	0.050357 	4766 	0.049619
34.75 	0.050541 	4808 	0.049688
34.79 	0.055348 	4824 	0.054498
34.83 	0.056355 	4862 	0.055392
34.87 	0.058135 	4868 	0.057413
34.91 	0.058583 	4882 	0.057743
34.95 	0.055215 	4890 	0.054616
34.99 	0.050643 	4897 	0.049806
35.03 	0.057657 	4943 	0.056808
35.07 	0.046964 	4940 	0.046114
35.11 	0.054174 	4947 	0.053109
35.15 	0.059550 	4937 	0.058601
35.19 	0.053217 	4942 	0.052743
35.23 	0.054601 	4945 	0.053771
35.27 	0.049919 	4948 	0.049090
35.31 	0.055950 	4933 	0.054881
35.35 	0.054836 	4942 	0.053295
35.39 	0.056016 	4945 	0.055187
35.43 	0.056152 	4933 	0.055202
35.47 	0.053539 	4931 	0.052470
35.51 	0.054811 	4926 	0.053979
35.55 	0.055207 	4945 	0.054141
35.59 	0.058847 	4945 	0.057288
35.63 	0.055634 	4943 	0.054923
35.67 	0.061918 	4942 	0.061326
35.71 	0.061981 	4937 	0.060794
35.75 	0.057392 	4931 	0.055947
35.79 	0.058191 	4932 	0.056885
35.83 	0.056005 	4946 	0.055294
35.87 	0.052813 	4923 	0.052099
35.91 	0.056424 	4927 	0.054978
35.95 	0.057352 	4917 	0.056280
35.99 	0.047580 	4939 	0.046869
36.03 	0.054825 	4943 	0.053857
36.07 	0.056894 	4939 	0.055708
36.11 	0.050720 	4929 	0.049888
36.15 	0.058514 	4939 	0.057091
36.19 	0.054656 	4940 	0.053826
36.23 	0.063425 	4935 	0.062099
36.27 	0.056650 	4925 	0.055817
36.31 	0.048295 	4928 	0.047939
36.35 	0.055589 	4929 	0.055114
36.39 	0.059338 	4921 	0.058028
36.43 	0.056209 	4928 	0.056209
36.47 	0.060575 	4936 	0.059745
36.51 	0.052098 	4933 	0.051267
36.55 	0.057845 	4927 	0.057250
36.59 	0.051832 	4939 	0.050390
36.63 	0.056784 	4931 	0.056190
36.67 	0.059838 	4930 	0.058650
36.71 	0.053038 	4921 	0.052205
36.75 	0.055623 	4944 	0.054675
36.79 	0.057509 	4921 	0.056199
36.83 	0.059207 	4915 	0.058233
36.87 	0.059264 	4944 	0.057704
36.91 	0.054442 	4941 	0.053613
36.95 	0.064464 	4933 	0.062920
36.99 	0.054711 	4935 	0.054118
37.03 	0.056661 	4924 	0.055710
37.07 	0.053698 	4935 	0.053579
37.11 	0.052077 	4935 	0.051127
37.15 	0.055205 	4909 	0.054131
37.19 	0.053401 	4925 	0.052549
37.23 	0.053477 	4918 	0.052624
37.27 	0.052513 	4894 	0.051795
37.31 	0.057143 	4935 	0.055956
37.35 	0.055488 	4938 	0.054638
37.39 	0.054553 	4931 	0.054078
37.43 	0.052109 	4932 	0.051277
37.47 	0.059038 	4929 	0.058206
37.51 	0.053112 	4933 	0.052637
37.55 	0.053550 	4930 	0.052599
37.59 	0.054323 	4915 	0.053251
37.63 	0.054279 	4919 	0.053426
37.67 	0.051794 	4904 	0.051197
37.71 	0.058430 	4929 	0.057479
37.75 	0.052024 	4940 	0.050838
37.79 	0.048682 	4930 	0.047731
37.83 	0.047358 	4920 	0.047239
37.87 	0.052035 	4939 	0.051323
37.91 	0.052535 	4930 	0.051823
37.95 	0.058118 	4921 	0.057880
37.99 	0.054153 	4912 	0.053199
38.03 	0.046038 	4909 	0.045680
38.07 	0.060501 	4909 	0.059546
38.11 	0.052482 	4935 	0.051889
38.15 	0.057340 	4918 	0.055911
38.19 	0.056795 	4930 	0.055845
38.23 	0.057311 	4938 	0.055630
38.27 	0.055375 	4930 	0.053712
38.31 	0.067181 	4927 	0.065397
38.35 	0.064326 	4928 	0.063375
38.39 	0.071705 	4909 	0.070512
38.43 	0.074247 	4916 	0.072421
38.47 	0.072549 	4907 	0.071236
38.51 	0.073601 	4932 	0.071701
38.55 	0.070908 	4936 	0.069721
38.59 	0.075142 	4924 	0.072843
38.63 	0.068237 	4924 	0.066572
38.67 	0.067652 	4937 	0.066466
38.71 	0.063566 	4924 	0.062852
38.75 	0.062513 	4927 	0.061443
38.79 	0.056141 	4934 	0.055785
38.83 	0.052450 	4919 	0.051616
38.87 	0.050703 	4911 	0.050345
38.91 	0.059351 	4903 	0.058256
38.95 	0.048190 	4918 	0.047714
38.99 	0.056512 	4937 	0.055207
39.03 	0.053506 	4934 	0.052794
39.07 	0.047116 	4924 	0.047116
39.11 	0.046035 	4931 	0.045679
39.15 	0.052696 	4915 	0.052338
39.19 	0.045149 	4917 	0.044316
39.23 	0.042640 	4925 	0.042283
39.27 	0.049287 	4910 	0.048929
39.31 	0.047707 	4884 	0.047227
39.35 	0.045795 	4935 	0.045439
39.39 	0.046460 	4929 	0.045846
39.43 	0.046422 	4933 	0.045472
39.47 	0.048345 	4923 	0.047750
39.51 	0.046101 	4924 	0.045863
39.55 	0.044725 	4919 	0.044486
39.59 	0.046213 	4912 	0.045975
39.63 	0.046323 	4922 	0.045371
39.67 	0.040708 	4913 	0.039993
39.71 	0.043105 	4895 	0.042866
39.75 	0.043628 	4928 	0.042796
39.79 	0.044458 	4926 	0.044220
39.83 	0.049047 	4934 	0.048691
39.87 	0.050558 	4925 	0.049825
39.91 	0.045916 	4922 	0.045083
39.95 	0.041709 	4915 	0.041213
39.99 	0.044809 	4932 	0.044216
40.03 	0.040584 	4928 	0.039871
40.07 	0.044079 	4923 	0.043603
40.11 	0.040683 	4916 	0.039969
40.15 	0.042540 	4913 	0.042183
40.19 	0.044228 	4929 	0.044228
40.23 	0.045215 	4932 	0.044859
40.27 	0.042333 	4937 	0.041147
40.31 	0.044341 	4939 	0.043867
40.35 	0.040659 	4919 	0.040182
40.39 	0.042791 	4931 	0.041959
40.43 	0.043478 	4922 	0.042764
40.47 	0.045140 	4918 	0.044664
40.51 	0.041447 	4922 	0.041209
40.55 	0.040750 	4908 	0.040133
40.59 	0.042333 	4937 	0.041977
40.63 	0.043813 	4930 	0.043338
40.67 	0.041565 	4932 	0.041209
40.71 	0.041971 	4932 	0.041021
40.75 	0.039140 	4931 	0.038665
40.79 	0.040008 	4924 	0.039175
40.83 	0.043019 	4928 	0.042544
40.87 	0.035511 	4928 	0.035036
40.91 	0.041032 	4923 	0.040318
40.95 	0.039080 	4913 	0.037888
40.99 	0.047522 	4924 	0.047027
41.03 	0.040163 	4905 	0.039327
41.07 	0.045030 	4930 	0.044080
41.11 	0.040932 	4935 	0.040457
41.15 	0.041287 	4941 	0.040932
41.19 	0.036105 	4930 	0.035987
41.23 	0.039887 	4939 	0.039531
41.27 	0.040357 	4931 	0.039525
41.31 	0.041354 	4933 	0.041117
41.35 	0.040502 	4938 	0.039790
41.39 	0.041760 	4933 	0.041285
41.43 	0.039562 	4929 	0.039205
41.47 	0.040601 	4926 	0.040601
41.51 	0.040081 	4940 	0.039607
41.55 	0.044174 	4935 	0.043343
41.59 	0.042368 	4933 	0.042011
41.63 	0.042325 	4938 	0.041712
41.67 	0.036032 	4940 	0.036032
41.71 	0.041548 	4934 	0.041311
41.75 	0.039765 	4929 	0.039408
41.79 	0.036812 	4944 	0.036220
41.83 	0.038555 	4928 	0.038555
41.87 	0.043972 	4935 	0.043022
41.91 	0.037480 	4936 	0.036649
41.95 	0.037315 	4931 	0.036840
41.99 	0.043425 	4905 	0.043306
42.03 	0.039887 	4939 	0.039887
42.07 	0.041321 	4937 	0.040490
42.11 	0.039029 	4945 	0.038674
42.15 	0.036655 	4938 	0.036180
42.19 	0.040750 	4908 	0.039895
42.23 	0.039043 	4892 	0.038564
42.27 	0.038367 	4874 	0.038006
42.31 	0.040165 	4855 	0.039923
42.35 	0.040099 	4838 	0.039736
42.39 	0.037469 	4804 	0.037347
42.43 	0.036937 	4792 	0.036692
42.47 	0.034418 	4765 	0.034418
42.51 	0.034156 	4743 	0.033538
42.55 	0.037808 	4708 	0.037435
42.59 	0.038486 	4729 	0.037619
42.63 	0.039074 	4709 	0.038577
42.67 	0.035226 	4684 	0.034476
42.71 	0.032383 	4663 	0.031880
42.75 	0.041802 	4617 	0.041548
42.79 	0.039284 	4582 	0.039028
42.83 	0.038580 	4536 	0.037935
42.87 	0.034897 	4499 	0.034376
42.91 	0.040395 	4456 	0.039453
42.95 	0.032156 	4416 	0.032023
42.99 	0.040821 	4385 	0.040554
43.03 	0.042003 	4333 	0.041598
43.07 	0.037011 	4296 	0.036466
43.11 	0.034313 	4255 	0.034175
43.15 	0.042796 	4206 	0.041682
43.19 	0.040296 	4194 	0.040016
43.23 	0.036110 	4154 	0.035828
43.27 	0.036297 	4105 	0.035726
43.31 	0.038980 	4079 	0.038693
43.35 	0.037946 	4032 	0.037511
43.39 	0.035982 	4002 	0.035543
43.43 	0.037879 	3960 	0.037287
43.47 	0.032645 	3921 	0.032197
43.51 	0.036368 	3877 	0.036217
43.55 	0.048583 	2964 	0.047200
43.59 	0.027491 	1746 	0.027491
43.63 	0.039960 	1001 	0.039375
43.67 	0.039841 	502 	0.039841
43.71 	0.054393 	239 	0.054393
43.75 	0.062500 	16 	0.062500

File: 25SC_s1_0035.002.dat
#F C:\frames\spec\25SC_s1_0035.002
#C title =s:35 frm:2 25SC_s1
#C wavelength =0.15406

#S 1  fr_average C:\frames\spec\25SC_s1_0035.002 C:\win32app\speccom\mask.axs chi 0 180 0 360 0.02
#C 2 theta =0.000000 to 180 deg
#C   q   =0.000000 to 81.568 nm^-1
#C  chi  =0.000000 to 360 deg
#C collumns:
#C  1 position (2theta or chi in degrees)
#C  2 average intensity (sum of all counts in the region divided with number of pixels)
#C  3 Number of pixels in region)
#C  4 error (sum of sqrt(intensity) for all pixels divided by number)
#N 4
#L TTh  Int  N_pix  Err
32.99 	0.098361 	61 	0.098361
33.03 	0.051042 	1391 	0.050200
33.07 	0.065854 	2050 	0.064711
33.11 	0.052734 	2579 	0.052279
33.15 	0.066355 	2999 	0.065574
33.19 	0.050868 	3342 	0.050342
33.23 	0.061595 	3523 	0.061096
33.27 	0.055647 	3630 	0.055163
33.31 	0.053552 	3660 	0.053072
33.35 	0.061451 	3694 	0.060658
33.39 	0.055243 	3729 	0.054457
33.43 	0.056900 	3761 	0.056588
33.47 	0.056345 	3798 	0.055420
33.51 	0.051900 	3815 	0.051286
33.55 	0.057767 	3843 	0.056243
33.59 	0.056443 	3880 	0.055060
33.63 	0.057923 	3919 	0.056852
33.67 	0.061457 	3954 	0.060716
33.71 	0.059371 	3975 	0.058339
33.75 	0.061015 	3999 	0.059257
33.79 	0.061866 	4041 	0.060537
33.83 	0.062222 	4050 	0.061499
33.87 	0.059596 	4111 	0.058599
33.91 	0.051097 	4149 	0.050814
33.95 	0.057163 	4181 	0.056323
33.99 	0.055238 	4200 	0.054401
34.03 	0.059614 	4244 	0.058371
34.07 	0.058810 	4268 	0.057025
34.11 	0.062297 	4302 	0.061071
34.15 	0.060494 	4331 	0.059953
34.19 	0.057084 	4362 	0.056144
34.23 	0.052584 	4393 	0.052584
34.27 	0.060606 	4422 	0.060076
34.31 	0.051817 	4458 	0.050766
34.35 	0.058207 	4484 	0.057162
34.39 	0.062861 	4502 	0.061690
34.43 	0.058603 	4539 	0.057700
34.47 	0.054660 	4592 	0.053512
34.51 	0.053409 	4606 	0.052518
34.55 	0.061167 	4643 	0.060032
34.59 	0.053262 	4675 	0.052385
34.63 	0.063270 	4710 	0.061280
34.67 	0.057583 	4741 	0.056718
34.71 	0.057281 	4766 	0.056052
34.75 	0.056572 	4808 	0.055841
34.79 	0.054934 	4824 	0.053699
34.83 	0.055533 	4862 	0.054429
34.87 	0.051561 	4868 	0.050599
34.91 	0.058583 	4882 	0.057143
34.95 	0.055010 	4890 	0.054052
34.99 	0.055953 	4897 	0.054637
35.03 	0.054016 	4943 	0.053186
35.07 	0.058300 	4940 	0.057707
35.11 	0.059026 	4947 	0.057822
35.15 	0.061576 	4937 	0.060864
35.19 	0.055443 	4942 	0.054021
35.23 	0.057027 	4945 	0.056553
35.27 	0.054770 	4948 	0.053704
35.31 	0.055544 	4933 	0.055188
35.35 	0.060907 	4942 	0.059583
35.39 	0.057230 	4945 	0.056025
35.43 	0.056152 	4933 	0.055559
35.47 	0.058203 	4931 	0.057609
35.51 	0.065164 	4926 	0.064451
35.55 	0.062285 	4945 	0.060745
35.59 	0.052781 	4945 	0.051714
35.63 	0.054016 	4943 	0.053423
35.67 	0.053015 	4942 	0.052422
35.71 	0.055094 	4937 	0.054620
35.75 	0.053742 	4931 	0.052178
35.79 	0.056164 	4932 	0.055451
35.83 	0.059038 	4946 	0.057616
35.87 	0.057079 	4923 	0.056484
35.91 	0.057642 	4927 	0.056928
35.95 	0.053895 	4917 	0.053299
35.99 	0.056287 	4939 	0.055437
36.03 	0.056646 	4943 	0.055935
36.07 	0.063778 	4939 	0.062454
36.11 	0.054778 	4929 	0.053708
36.15 	0.059526 	4939 	0.058577
36.19 	0.052024 	4940 	0.051431
36.23 	0.056130 	4935 	0.054943
36.27 	0.056447 	4925 	0.055971
36.31 	0.055804 	4928 	0.054853
36.35 	0.058227 	4929 	0.057157
36.39 	0.055883 	4921 	0.054216
36.43 	0.052557 	4928 	0.051844
36.47 	0.053282 	4936 	0.052689
36.51 	0.050274 	4933 	0.049324
36.55 	0.058250 	4927 	0.057418
36.59 	0.052440 	4939 	0.051728
36.63 	0.052930 	4931 	0.052099
36.67 	0.060243 	4930 	0.059293
36.71 	0.048771 	4921 	0.048652
36.75 	0.052184 	4944 	0.051355
36.79 	0.049177 	4921 	0.048562
36.83 	0.053713 	4915 	0.052760
36.87 	0.051173 	4944 	0.050818
36.91 	0.056669 	4941 	0.055839
36.95 	0.049260 	4933 	0.047954
36.99 	0.054509 	4935 	0.053559
37.03 	0.053412 	4924 	0.052698
37.07 	0.050051 	4935 	0.049338
37.11 	0.051469 	4935 	0.050282
37.15 	0.048482 	4909 	0.047647
37.19 	0.053198 	4925 	0.052365
37.23 	0.057747 	4918 	0.055960
37.27 	0.056191 	4894 	0.054875
37.31 	0.057953 	4935 	0.056885
37.35 	0.053058 	4938 	0.052228
37.39 	0.050091 	4931 	0.049497
37.43 	0.050081 	4932 	0.049487
37.47 	0.055792 	4929 	0.054604
37.51 	0.050071 	4933 	0.049715
37.55 	0.049696 	4930 	0.049102
37.59 	0.055341 	4915 	0.054268
37.63 	0.050213 	4919 	0.049261
37.67 	0.051183 	4904 	0.050705
37.71 	0.055386 	4929 	0.054555
37.75 	0.048178 	4940 	0.047467
37.79 	0.051521 	4930 	0.050808
37.83 	0.052439 	4920 	0.051963
37.87 	0.050415 	4939 	0.049585
37.91 	0.047465 	4930 	0.046633
37.95 	0.051006 	4921 	0.050768
37.99 	0.051507 	4912 	0.050056
38.03 	0.045427 	4909 	0.044472
38.07 	0.054186 	4909 	0.053112
38.11 	0.057751 	4935 	0.056920
38.15 	0.052867 	4918 	0.051914
38.19 	0.053550 	4930 	0.052837
38.23 	0.056703 	4938 	0.055991
38.27 	0.059026 	4930 	0.057957
38.31 	0.056221 	4927 	0.055507
38.35 	0.060065 	4928 	0.058639
38.39 	0.061112 	4909 	0.059919
38.43 	0.062449 	4916 	0.060900
38.47 	0.069289 	4907 	0.068214
38.51 	0.068938 	4932 	0.067394
38.55 	0.066451 	4936 	0.064670
38.59 	0.051990 	4924 	0.051395
38.63 	0.054630 	4924 	0.053798
38.67 	0.061981 	4937 	0.061862
38.71 	0.053615 	4924 	0.053139
38.75 	0.060280 	4927 	0.059428
38.79 	0.051074 	4934 	0.050481
38.83 	0.049400 	4919 	0.048924
38.87 	0.051110 	4911 	0.049897
38.91 	0.051601 	4903 	0.049809
38.95 	0.047580 	4918 	0.047104
38.99 	0.046790 	4937 	0.045959
39.03 	0.047426 	4934 	0.046595
39.07 	0.046913 	4924 	0.046080
39.11 	0.040763 	4931 	0.040050
39.15 	0.050254 	4915 	0.049420
39.19 	0.049217 	4917 	0.048979
39.23 	0.048731 	4925 	0.047660
39.27 	0.045621 	4910 	0.045025
39.31 	0.046888 	4884 	0.046408
39.35 	0.041135 	4935 	0.040779
39.39 	0.040779 	4929 	0.040185
39.43 	0.045206 	4933 	0.044256
39.47 	0.047735 	4923 	0.047002
39.51 	0.048335 	4924 	0.047621
39.55 	0.046554 	4919 	0.046316
39.59 	0.045399 	4912 	0.044683
39.63 	0.049777 	4922 	0.048448
39.67 	0.050071 	4913 	0.048760
39.71 	0.040245 	4895 	0.039747
39.75 	0.044034 	4928 	0.043321
39.79 	0.043240 	4926 	0.042883
39.83 	0.046007 	4934 	0.045532
39.87 	0.044670 	4925 	0.044194
39.91 	0.044088 	4922 	0.042660
39.95 	0.049034 	4915 	0.048438
39.99 	0.046026 	4932 	0.045313
40.03 	0.044643 	4928 	0.044286
40.07 	0.043673 	4923 	0.042939
40.11 	0.043938 	4916 	0.043342
40.15 	0.041726 	4913 	0.041249
40.19 	0.045040 	4929 	0.044683
40.23 	0.041160 	4932 	0.041041
40.27 	0.051853 	4937 	0.051497
40.31 	0.041911 	4939 	0.041437
40.35 	0.042895 	4919 	0.042419
40.39 	0.034273 	4931 	0.034273
40.43 	0.039821 	4922 	0.038869
40.47 	0.040057 	4918 	0.039580
40.51 	0.042462 	4922 	0.042105
40.55 	0.042176 	4908 	0.041579
40.59 	0.038282 	4937 	0.038045
40.63 	0.038742 	4930 	0.038267
40.67 	0.047242 	4932 	0.047005
40.71 	0.045620 	4932 	0.045145
40.75 	0.041777 	4931 	0.041420
40.79 	0.036353 	4924 	0.035639
40.83 	0.038555 	4928 	0.037842
40.87 	0.042208 	4928 	0.041970
40.91 	0.036766 	4923 	0.036647
40.95 	0.045797 	4913 	0.045320
40.99 	0.040211 	4924 	0.039735
41.03 	0.037717 	4905 	0.037358
41.07 	0.040365 	4930 	0.039771
41.11 	0.039311 	4935 	0.038836
41.15 	0.039466 	4941 	0.038754
41.19 	0.041379 	4930 	0.040666
41.23 	0.043126 	4939 	0.042652
41.27 	0.043805 	4931 	0.043329
41.31 	0.042976 	4933 	0.042620
41.35 	0.040300 	4938 	0.039588
41.39 	0.034665 	4933 	0.034308
41.43 	0.037736 	4929 	0.036647
41.47 	0.039789 	4926 	0.039313
41.51 	0.039676 	4940 	0.039083
41.55 	0.038095 	4935 	0.037739
41.59 	0.042570 	4933 	0.041977
41.63 	0.038680 	4938 	0.038324
41.67 	0.042915 	4940 	0.041966
41.71 	0.040940 	4934 	0.040347
41.75 	0.038344 	4929 	0.037631
41.79 	0.040049 	4944 	0.039693
41.83 	0.044846 	4928 	0.044251
41.87 	0.040122 	4935 	0.039647
41.91 	0.040519 	4936 	0.040044
41.95 	0.038329 	4931 	0.038091
41.99 	0.039144 	4905 	0.038547
42.03 	0.040089 	4939 	0.039496
42.07 	0.040713 	4937 	0.040357
42.11 	0.037816 	4945 	0.037342
42.15 	0.037667 	4938 	0.037074
42.19 	0.040342 	4908 	0.040104
42.23 	0.034751 	4892 	0.034751
42.27 	0.035289 	4874 	0.035049
42.31 	0.043460 	4855 	0.043219
42.35 	0.045887 	4838 	0.045039
42.39 	0.033722 	4804 	0.033600
42.43 	0.036728 	4792 	0.036483
42.47 	0.034837 	4765 	0.034591
42.51 	0.037318 	4743 	0.037195
42.55 	0.041206 	4708 	0.040833
42.59 	0.033622 	4729 	0.033498
42.63 	0.045870 	4709 	0.044501
42.67 	0.038429 	4684 	0.038304
42.71 	0.040961 	4663 	0.040961
42.75 	0.041152 	4617 	0.041025
42.79 	0.037538 	4582 	0.037155
42.83 	0.039242 	4536 	0.038983
42.87 	0.040009 	4499 	0.039488
42.91 	0.033438 	4456 	0.033438
42.95 	0.032156 	4416 	0.031890
42.99 	0.036944 	4385 	0.036543
43.03 	0.038772 	4333 	0.037939
43.07 	0.034218 	4296 	0.033809
43.11 	0.039483 	4255 	0.039208
43.15 	0.032573 	4206 	0.032433
43.19 	0.040057 	4194 	0.039219
43.23 	0.034665 	4154 	0.034242
43.27 	0.040438 	4105 	0.040153
43.31 	0.041677 	4079 	0.041246
43.35 	0.037202 	4032 	0.036767
43.39 	0.037731 	4002 	0.037146
43.43 	0.036111 	3960 	0.035815
43.47 	0.036725 	3921 	0.036128
43.51 	0.036884 	3877 	0.036884
43.55 	0.033063 	2964 	0.032866
43.59 	0.041237 	1746 	0.041237
43.63 	0.043956 	1001 	0.043956
43.67 	0.027888 	502 	0.027888
43.71 	0.041841 	239 	0.041841
43.75 	0.000000 	16 	0.000000