Folder: Bessy-II-KMC-II-insitu-sin2psi/Example_Data (part 85)

File: 25SC_s1_0034.002.dat
#F C:\frames\spec\25SC_s1_0034.002
#C title =s:34 frm:2 25SC_s1
#C wavelength =0.15406

#S 1  fr_average C:\frames\spec\25SC_s1_0034.002 C:\win32app\speccom\mask.axs chi 0 180 0 360 0.02
#C 2 theta =0.000000 to 180 deg
#C   q   =0.000000 to 81.568 nm^-1
#C  chi  =0.000000 to 360 deg
#C collumns:
#C  1 position (2theta or chi in degrees)
#C  2 average intensity (sum of all counts in the region divided with number of pixels)
#C  3 Number of pixels in region)
#C  4 error (sum of sqrt(intensity) for all pixels divided by number)
#N 4
#L TTh  Int  N_pix  Err
32.99 	0.098361 	61 	0.098361
33.03 	0.056794 	1391 	0.054688
33.07 	0.058049 	2050 	0.057192
33.11 	0.066305 	2579 	0.065623
33.15 	0.058353 	2999 	0.056790
33.19 	0.053561 	3342 	0.053035
33.23 	0.055351 	3523 	0.054353
33.27 	0.055096 	3630 	0.054451
33.31 	0.057923 	3660 	0.057123
33.35 	0.058473 	3694 	0.057839
33.39 	0.054170 	3729 	0.053227
33.43 	0.059293 	3761 	0.058514
33.47 	0.059242 	3798 	0.057982
33.51 	0.056356 	3815 	0.054821
33.55 	0.058028 	3843 	0.057113
33.59 	0.055928 	3880 	0.054871
33.63 	0.060219 	3919 	0.059472
33.67 	0.063480 	3954 	0.062739
33.71 	0.055094 	3975 	0.054063
33.75 	0.053763 	3999 	0.053324
33.79 	0.055927 	4041 	0.054912
33.83 	0.057778 	4050 	0.055753
33.87 	0.058866 	4111 	0.057727
33.91 	0.054471 	4149 	0.053906
33.95 	0.058120 	4181 	0.056836
33.99 	0.052619 	4200 	0.051922
34.03 	0.051838 	4244 	0.050872
34.07 	0.055998 	4268 	0.054626
34.11 	0.050907 	4302 	0.050226
34.15 	0.056338 	4331 	0.055391
34.19 	0.063961 	4362 	0.061947
34.23 	0.055771 	4393 	0.054437
34.27 	0.053596 	4422 	0.052668
34.31 	0.056079 	4458 	0.054896
34.35 	0.056646 	4484 	0.056254
34.39 	0.057752 	4502 	0.056971
34.43 	0.050672 	4539 	0.049640
34.47 	0.055096 	4592 	0.054586
34.51 	0.057317 	4606 	0.056426
34.55 	0.062244 	4643 	0.061613
34.59 	0.062674 	4675 	0.061922
34.63 	0.056263 	4710 	0.055517
34.67 	0.053997 	4741 	0.053379
34.71 	0.054763 	4766 	0.053903
34.75 	0.061148 	4808 	0.060539
34.79 	0.056799 	4824 	0.055706
34.83 	0.048128 	4862 	0.047526
34.87 	0.056697 	4868 	0.055493
34.91 	0.060836 	4882 	0.059756
34.95 	0.055624 	4890 	0.054665
34.99 	0.056157 	4897 	0.055678
35.03 	0.060692 	4943 	0.059625
35.07 	0.056478 	4940 	0.055766
35.11 	0.053770 	4947 	0.052349
35.15 	0.056107 	4937 	0.055039
35.19 	0.050992 	4942 	0.050517
35.23 	0.056421 	4945 	0.054881
35.27 	0.060631 	4948 	0.059683
35.31 	0.061220 	4933 	0.059914
35.35 	0.054229 	4942 	0.053162
35.39 	0.056421 	4945 	0.056065
35.43 	0.052301 	4933 	0.051588
35.47 	0.052322 	4931 	0.051966
35.51 	0.059074 	4926 	0.057409
35.55 	0.052376 	4945 	0.051310
35.59 	0.057432 	4945 	0.056366
35.63 	0.056241 	4943 	0.055274
35.67 	0.056050 	4942 	0.054865
35.71 	0.059955 	4937 	0.059362
35.75 	0.059623 	4931 	0.058415
35.79 	0.055353 	4932 	0.054146
35.83 	0.060453 	4946 	0.059624
35.87 	0.054032 	4923 	0.053299
35.91 	0.057642 	4927 	0.057047
35.95 	0.057555 	4917 	0.056583
35.99 	0.052237 	4939 	0.051288
36.03 	0.055027 	4943 	0.053487
36.07 	0.052642 	4939 	0.051693
36.11 	0.047474 	4929 	0.046623
36.15 	0.056287 	4939 	0.055219
36.19 	0.054049 	4940 	0.053337
36.23 	0.055927 	4935 	0.054977
36.27 	0.062741 	4925 	0.061552
36.31 	0.050528 	4928 	0.049696
36.35 	0.050314 	4929 	0.049958
36.39 	0.055883 	4921 	0.055169
36.43 	0.054180 	4928 	0.053229
36.47 	0.054903 	4936 	0.053716
36.51 	0.064058 	4933 	0.062990
36.55 	0.055003 	4927 	0.054290
36.59 	0.059526 	4939 	0.058577
36.63 	0.052119 	4931 	0.051149
36.67 	0.051927 	4930 	0.050976
36.71 	0.057915 	4921 	0.056844
36.75 	0.056028 	4944 	0.054724
36.79 	0.057712 	4921 	0.056283
36.83 	0.051272 	4915 	0.050676
36.87 	0.050566 	4944 	0.049599
36.91 	0.052621 	4941 	0.051791
36.95 	0.046422 	4933 	0.045828
36.99 	0.051469 	4935 	0.050401
37.03 	0.054630 	4924 	0.053540
37.07 	0.057345 	4935 	0.056633
37.11 	0.052685 	4935 	0.051735
37.15 	0.053779 	4909 	0.052943
37.19 	0.051371 	4925 	0.051133
37.23 	0.053477 	4918 	0.052881
37.27 	0.049653 	4894 	0.049054
37.31 	0.055522 	4935 	0.055047
37.35 	0.052653 	4938 	0.051922
37.39 	0.052119 	4931 	0.050793
37.43 	0.061030 	4932 	0.059961
37.47 	0.050314 	4929 	0.049958
37.51 	0.054125 	4933 	0.053294
37.55 	0.054158 	4930 	0.053326
37.59 	0.052492 	4915 	0.052373
37.63 	0.054686 	4919 	0.053971
37.67 	0.052202 	4904 	0.052083
37.71 	0.054169 	4929 	0.053218
37.75 	0.053441 	4940 	0.052730
37.79 	0.049290 	4930 	0.048815
37.83 	0.053659 	4920 	0.052706
37.87 	0.049403 	4939 	0.048335
37.91 	0.047667 	4930 	0.047430
37.95 	0.055680 	4921 	0.054708
37.99 	0.050896 	4912 	0.050061
38.03 	0.055816 	4909 	0.055458
38.07 	0.053371 	4909 	0.052536
38.11 	0.049443 	4935 	0.048493
38.15 	0.054087 	4918 	0.053372
38.19 	0.055172 	4930 	0.053965
38.23 	0.056501 	4938 	0.056145
38.27 	0.054564 	4930 	0.053732
38.31 	0.056221 	4927 	0.054556
38.35 	0.062297 	4928 	0.061227
38.39 	0.059075 	4909 	0.058359
38.43 	0.062653 	4916 	0.061342
38.47 	0.064194 	4907 	0.063239
38.51 	0.066099 	4932 	0.064535
38.55 	0.062804 	4936 	0.062092
38.59 	0.060114 	4924 	0.059142
38.63 	0.057880 	4924 	0.056333
38.67 	0.060158 	4937 	0.059446
38.71 	0.050975 	4924 	0.050618
38.75 	0.056018 	4927 	0.054829
38.79 	0.054317 	4934 	0.052892
38.83 	0.050417 	4919 	0.050059
38.87 	0.048055 	4911 	0.047340
38.91 	0.045482 	4903 	0.045004
38.95 	0.043514 	4918 	0.043275
38.99 	0.050233 	4937 	0.048790
39.03 	0.050061 	4934 	0.049467
39.07 	0.045491 	4924 	0.044897
39.11 	0.050497 	4931 	0.049646
39.15 	0.046389 	4915 	0.045793
39.19 	0.044946 	4917 	0.044350
39.23 	0.047107 	4925 	0.045441
39.27 	0.045621 	4910 	0.045263
39.31 	0.046478 	4884 	0.046118
39.35 	0.041540 	4935 	0.040947
39.39 	0.048286 	4929 	0.047929
39.43 	0.048449 	4933 	0.047618
39.47 	0.041032 	4923 	0.040080
39.51 	0.045898 	4924 	0.045184
39.55 	0.039439 	4919 	0.039082
39.59 	0.046824 	4912 	0.045989
39.63 	0.041853 	4922 	0.041258
39.67 	0.048646 	4913 	0.048050
39.71 	0.046374 	4895 	0.045656
39.75 	0.042208 	4928 	0.041732
39.79 	0.047706 	4926 	0.047468
39.83 	0.051074 	4934 	0.050481
39.87 	0.041827 	4925 	0.041708
39.91 	0.042666 	4922 	0.042309
39.95 	0.044761 	4915 	0.044046
39.99 	0.038727 	4932 	0.038489
40.03 	0.040787 	4928 	0.039955
40.07 	0.046923 	4923 	0.045951
40.11 	0.050244 	4916 	0.049172
40.15 	0.047425 	4913 	0.046571
40.19 	0.038750 	4929 	0.038018
40.23 	0.039538 	4932 	0.039063
40.27 	0.043346 	4937 	0.043228
40.31 	0.040292 	4939 	0.039580
40.35 	0.041472 	4919 	0.041115
40.39 	0.047860 	4931 	0.047623
40.43 	0.043885 	4922 	0.043052
40.47 	0.043920 	4918 	0.043206
40.51 	0.046932 	4922 	0.046317
40.55 	0.046251 	4908 	0.045535
40.59 	0.043144 	4937 	0.042313
40.63 	0.043611 	4930 	0.041928
40.67 	0.036902 	4932 	0.036427
40.71 	0.043998 	4932 	0.043761
40.75 	0.039749 	4931 	0.039392
40.79 	0.041836 	4924 	0.041717
40.83 	0.036932 	4928 	0.036813
40.87 	0.045049 	4928 	0.044217
40.91 	0.045094 	4923 	0.044737
40.95 	0.044983 	4913 	0.043790
40.99 	0.043258 	4924 	0.042306
41.03 	0.041182 	4905 	0.040824
41.07 	0.043205 	4930 	0.043086
41.11 	0.042148 	4935 	0.041673
41.15 	0.035418 	4941 	0.035299
41.19 	0.040568 	4930 	0.040093
41.23 	0.043936 	4939 	0.043462
41.27 	0.045630 	4931 	0.044798
41.31 	0.038111 	4933 	0.037754
41.35 	0.040705 	4938 	0.040349
41.39 	0.045003 	4933 	0.044172
41.43 	0.039156 	4929 	0.038799
41.47 	0.038977 	4926 	0.038620
41.51 	0.040891 	4940 	0.040179
41.55 	0.040527 	4935 	0.040289
41.59 	0.042976 	4933 	0.042501
41.63 	0.042730 	4938 	0.042137
41.67 	0.040486 	4940 	0.040130
41.71 	0.038508 	4934 	0.038152
41.75 	0.046054 	4929 	0.045579
41.79 	0.037419 	4944 	0.037419
41.83 	0.040990 	4928 	0.040871
41.87 	0.041743 	4935 	0.041387
41.91 	0.039506 	4936 	0.039031
41.95 	0.035084 	4931 	0.034728
41.99 	0.046279 	4905 	0.046040
42.03 	0.038267 	4939 	0.038148
42.07 	0.036054 	4937 	0.035817
42.11 	0.042467 	4945 	0.042112
42.15 	0.044147 	4938 	0.043317
42.19 	0.037694 	4908 	0.036858
42.23 	0.038021 	4892 	0.037662
42.27 	0.036725 	4874 	0.036725
42.31 	0.039753 	4855 	0.039029
42.35 	0.037412 	4838 	0.037291
42.39 	0.038718 	4804 	0.038230
42.43 	0.042780 	4792 	0.042413
42.47 	0.040504 	4765 	0.039746
42.51 	0.041535 	4743 	0.040917
42.55 	0.038445 	4708 	0.037927
42.59 	0.037852 	4729 	0.037356
42.63 	0.037800 	4709 	0.037551
42.67 	0.037361 	4684 	0.036861
42.71 	0.043320 	4663 	0.042817
42.75 	0.040719 	4617 	0.040085
42.79 	0.037756 	4582 	0.036989
42.83 	0.032628 	4536 	0.031982
42.87 	0.038675 	4499 	0.038154
42.91 	0.030521 	4456 	0.030126
42.95 	0.036911 	4416 	0.036646
42.99 	0.042417 	4385 	0.042284
43.03 	0.040388 	4333 	0.040253
43.07 	0.039804 	4296 	0.039395
43.11 	0.036898 	4255 	0.036898
43.15 	0.034475 	4206 	0.034057
43.19 	0.035289 	4194 	0.034869
43.23 	0.036110 	4154 	0.035969
43.27 	0.035079 	4105 	0.034794
43.31 	0.036529 	4079 	0.036098
43.35 	0.035962 	4032 	0.035526
43.39 	0.038731 	4002 	0.038292
43.43 	0.039646 	3960 	0.039351
43.47 	0.038001 	3921 	0.036955
43.51 	0.031468 	3877 	0.031014
43.55 	0.039811 	2964 	0.039218
43.59 	0.038373 	1746 	0.037702
43.63 	0.046953 	1001 	0.046953
43.67 	0.045817 	502 	0.045817
43.71 	0.041841 	239 	0.041841
43.75 	0.125000 	16 	0.125000

File: 25SC_s1_0034.003.dat
#F C:\frames\spec\25SC_s1_0034.003
#C title =s:34 frm:3 25SC_s1
#C wavelength =0.15406

#S 1  fr_average C:\frames\spec\25SC_s1_0034.003 C:\win32app\speccom\mask.axs chi 0 180 0 360 0.02
#C 2 theta =0.000000 to 180 deg
#C   q   =0.000000 to 81.568 nm^-1
#C  chi  =0.000000 to 360 deg
#C collumns:
#C  1 position (2theta or chi in degrees)
#C  2 average intensity (sum of all counts in the region divided with number of pixels)
#C  3 Number of pixels in region)
#C  4 error (sum of sqrt(intensity) for all pixels divided by number)
#N 4
#L TTh  Int  N_pix  Err
32.99 	0.065574 	61 	0.065574
33.03 	0.053918 	1391 	0.053076
33.07 	0.056585 	2050 	0.056300
33.11 	0.063978 	2579 	0.062843
33.15 	0.067689 	2999 	0.066713
33.19 	0.064333 	3342 	0.063632
33.23 	0.051093 	3523 	0.050261
33.27 	0.055923 	3630 	0.054632
33.31 	0.057923 	3660 	0.056483
33.35 	0.054683 	3694 	0.054049
33.39 	0.063824 	3729 	0.062253
33.43 	0.063813 	3761 	0.063034
33.47 	0.063981 	3798 	0.063364
33.51 	0.060813 	3815 	0.060045
33.55 	0.062972 	3843 	0.061422
33.59 	0.056701 	3880 	0.055946
33.63 	0.058944 	3919 	0.058196
33.67 	0.065250 	3954 	0.064213
33.71 	0.059874 	3975 	0.059285
33.75 	0.052513 	3999 	0.052220
33.79 	0.061371 	4041 	0.060066
33.83 	0.060741 	4050 	0.059584
33.87 	0.065434 	4111 	0.064722
33.91 	0.057122 	4149 	0.055828
33.95 	0.067926 	4181 	0.067226
33.99 	0.068095 	4200 	0.066538
34.03 	0.059378 	4244 	0.058274
34.07 	0.063027 	4268 	0.061769
34.11 	0.057183 	4302 	0.056366
34.15 	0.060263 	4331 	0.059857
34.19 	0.061669 	4362 	0.060729
34.23 	0.059185 	4393 	0.058518
34.27 	0.058345 	4422 	0.057682
34.31 	0.051817 	4458 	0.050766
34.35 	0.059099 	4484 	0.058446
34.39 	0.052421 	4502 	0.051510
34.43 	0.057061 	4539 	0.056029
34.47 	0.055749 	4592 	0.054580
34.51 	0.059053 	4606 	0.058290
34.55 	0.059444 	4643 	0.058687
34.59 	0.060107 	4675 	0.059856
34.63 	0.054989 	4710 	0.054492
34.67 	0.055684 	4741 	0.054820
34.71 	0.060848 	4766 	0.059864
34.75 	0.056780 	4808 	0.055664
34.79 	0.060738 	4824 	0.059159
34.83 	0.056561 	4862 	0.054995
34.87 	0.054232 	4868 	0.052628
34.91 	0.052438 	4882 	0.051838
34.95 	0.063804 	4890 	0.062486
34.99 	0.059424 	4897 	0.058706
35.03 	0.060894 	4943 	0.059808
35.07 	0.056275 	4940 	0.055920
35.11 	0.050131 	4947 	0.050013
35.15 	0.052461 	4937 	0.051986
35.19 	0.057264 	4942 	0.056534
35.23 	0.056825 	4945 	0.055996
35.27 	0.060226 	4948 	0.059398
35.31 	0.058585 	4933 	0.057754
35.35 	0.057871 	4942 	0.057160
35.39 	0.063903 	4945 	0.061840
35.43 	0.059193 	4933 	0.058599
35.47 	0.058609 	4931 	0.057540
35.51 	0.058059 	4926 	0.057207
35.55 	0.056421 	4945 	0.054881
35.59 	0.057432 	4945 	0.056346
35.63 	0.053409 	4943 	0.052461
35.67 	0.064549 	4942 	0.063482
35.71 	0.060158 	4937 	0.058971
35.75 	0.056175 	4931 	0.055581
35.79 	0.052920 	4932 	0.051494
35.83 	0.056611 	4946 	0.055190
35.87 	0.051391 	4923 	0.050677
35.91 	0.057845 	4927 	0.056893
35.95 	0.060199 	4917 	0.058889
35.99 	0.058716 	4939 	0.058123
36.03 	0.056443 	4943 	0.055495
36.07 	0.055477 	4939 	0.054390
36.11 	0.059038 	4929 	0.057949
36.15 	0.056692 	4939 	0.055387
36.19 	0.047571 	4940 	0.046741
36.23 	0.058764 	4935 	0.058527
36.27 	0.057665 	4925 	0.056713
36.31 	0.051339 	4928 	0.051102
36.35 	0.056401 	4929 	0.055807
36.39 	0.052835 	4921 	0.052240
36.43 	0.052963 	4928 	0.052131
36.47 	0.054092 	4936 	0.053380
36.51 	0.053720 	4933 	0.053126
36.55 	0.049929 	4927 	0.049097
36.59 	0.050415 	4939 	0.050059
36.63 	0.055770 	4931 	0.055057
36.67 	0.052738 	4930 	0.051550
36.71 	0.053648 	4921 	0.053291
36.75 	0.057646 	4944 	0.057290
36.79 	0.052022 	4921 	0.051308
36.83 	0.053713 	4915 	0.052382
36.87 	0.058455 	4944 	0.057270
36.91 	0.049585 	4941 	0.048992
36.95 	0.053314 	4933 	0.051771
36.99 	0.051469 	4935 	0.050994
37.03 	0.053006 	4924 	0.052054
37.07 	0.053698 	4935 	0.052630
37.11 	0.051064 	4935 	0.050114
37.15 	0.047056 	4909 	0.046221
37.19 	0.051777 	4925 	0.050687
37.23 	0.051647 	4918 	0.051290
37.27 	0.051696 	4894 	0.050958
37.31 	0.050051 	4935 	0.049338
37.35 	0.053058 	4938 	0.051634
37.39 	0.050902 	4931 	0.050071
37.43 	0.047040 	4932 	0.046327
37.47 	0.048083 	4929 	0.047607
37.51 	0.051693 	4933 	0.051099
37.55 	0.050507 	4930 	0.049913
37.59 	0.051272 	4915 	0.050557
37.63 	0.052450 	4919 	0.051854
37.67 	0.049959 	4904 	0.049004
37.71 	0.052343 	4929 	0.051749
37.75 	0.056275 	4940 	0.055090
37.79 	0.056187 	4930 	0.054979
37.83 	0.050610 	4920 	0.050134
37.87 	0.051225 	4939 	0.050395
37.91 	0.050710 	4930 	0.050353
37.95 	0.049177 	4921 	0.048463
37.99 	0.047842 	4912 	0.047007
38.03 	0.051742 	4909 	0.050548
38.07 	0.054594 	4909 	0.053878
38.11 	0.051469 	4935 	0.050401
38.15 	0.052054 	4918 	0.051200
38.19 	0.048479 	4930 	0.047766
38.23 	0.058728 	4938 	0.057661
38.27 	0.059026 	4930 	0.057581
38.31 	0.060483 	4927 	0.059889
38.35 	0.059253 	4928 	0.058540
38.39 	0.063353 	4909 	0.062040
38.43 	0.057567 	4916 	0.056376
38.47 	0.058284 	4907 	0.057448
38.51 	0.061436 	4932 	0.059773
38.55 	0.053890 	4936 	0.053178
38.59 	0.055849 	4924 	0.054402
38.63 	0.056052 	4924 	0.054466
38.67 	0.053069 	4937 	0.052475
38.71 	0.046304 	4924 	0.046185
38.75 	0.052365 	4927 	0.051770
38.79 	0.053912 	4934 	0.052804
38.83 	0.054686 	4919 	0.054090
38.87 	0.052942 	4911 	0.051988
38.91 	0.050581 	4903 	0.049506
38.95 	0.049410 	4918 	0.048696
38.99 	0.049625 	4937 	0.048657
39.03 	0.046818 	4934 	0.045749
39.07 	0.049350 	4924 	0.048993
39.11 	0.043399 	4931 	0.042924
39.15 	0.048627 	4915 	0.047912
39.19 	0.048403 	4917 	0.047689
39.23 	0.052386 	4925 	0.051434
39.27 	0.042566 	4910 	0.042089
39.31 	0.048731 	4884 	0.048131
39.35 	0.044377 	4935 	0.044021
39.39 	0.052343 	4929 	0.051987
39.43 	0.046422 	4933 	0.045947
39.47 	0.045704 	4923 	0.045228
39.51 	0.040617 	4924 	0.039904
39.55 	0.043505 	4919 	0.042909
39.59 	0.047028 	4912 	0.046431
39.63 	0.049980 	4922 	0.049742
39.67 	0.051496 	4913 	0.050781
39.71 	0.045148 	4895 	0.044550
39.75 	0.043019 	4928 	0.041831
39.79 	0.047909 	4926 	0.046839
39.83 	0.049250 	4934 	0.048538
39.87 	0.049543 	4925 	0.048711
39.91 	0.045104 	4922 	0.044013
39.95 	0.044354 	4915 	0.043639
39.99 	0.045823 	4932 	0.045111
40.03 	0.044440 	4928 	0.044083
40.07 	0.050376 	4923 	0.049781
40.11 	0.048617 	4916 	0.048259
40.15 	0.048850 	4913 	0.048254
40.19 	0.049706 	4929 	0.049349
40.23 	0.041363 	4932 	0.040769
40.27 	0.044359 	4937 	0.043766
40.31 	0.046973 	4939 	0.046499
40.35 	0.047571 	4919 	0.047094
40.39 	0.041777 	4931 	0.041183
40.43 	0.047948 	4922 	0.047710
40.47 	0.046564 	4918 	0.046325
40.51 	0.050386 	4922 	0.049553
40.55 	0.045640 	4908 	0.044665
40.59 	0.038890 	4937 	0.038178
40.63 	0.049087 	4930 	0.048493
40.67 	0.045620 	4932 	0.045264
40.71 	0.038727 	4932 	0.038489
40.75 	0.042588 	4931 	0.042231
40.79 	0.047319 	4924 	0.046962
40.83 	0.043019 	4928 	0.042663
40.87 	0.046063 	4928 	0.045350
40.91 	0.046923 	4923 	0.045971
40.95 	0.040912 	4913 	0.040435
40.99 	0.045288 	4924 	0.044456
41.03 	0.041182 	4905 	0.040824
41.07 	0.046045 	4930 	0.045451
41.11 	0.039514 	4935 	0.039158
41.15 	0.036430 	4941 	0.035956
41.19 	0.040162 	4930 	0.039568
41.23 	0.041709 	4939 	0.041353
41.27 	0.043805 	4931 	0.042617
41.31 	0.044800 	4933 	0.044207
41.35 	0.042730 	4938 	0.042255
41.39 	0.041760 	4933 	0.041166
41.43 	0.042402 	4929 	0.041689
41.47 	0.042428 	4926 	0.042190
41.51 	0.044332 	4940 	0.043739
41.55 	0.044580 	4935 	0.044105
41.59 	0.040543 	4933 	0.040187
41.63 	0.042932 	4938 	0.041983
41.67 	0.040081 	4940 	0.040081
41.71 	0.043575 	4934 	0.042863
41.75 	0.047474 	4929 	0.047355
41.79 	0.043285 	4944 	0.042455
41.83 	0.035511 	4928 	0.035036
41.87 	0.042553 	4935 	0.042197
41.91 	0.044368 	4936 	0.043537
41.95 	0.037315 	4931 	0.036840
41.99 	0.040979 	4905 	0.040620
42.03 	0.044138 	4939 	0.043545
42.07 	0.038890 	4937 	0.038415
42.11 	0.043074 	4945 	0.042600
42.15 	0.039692 	4938 	0.039336
42.19 	0.038916 	4908 	0.038319
42.23 	0.043336 	4892 	0.042498
42.27 	0.042470 	4874 	0.041869
42.31 	0.040989 	4855 	0.040627
42.35 	0.040513 	4838 	0.040270
42.39 	0.044546 	4804 	0.043815
42.43 	0.042988 	4792 	0.042377
42.47 	0.039454 	4765 	0.039208
42.51 	0.045119 	4743 	0.044872
42.55 	0.043331 	4708 	0.042439
42.59 	0.045676 	4729 	0.044685
42.63 	0.038649 	4709 	0.038027
42.67 	0.045474 	4684 	0.044724
42.71 	0.044392 	4663 	0.044266
42.75 	0.039853 	4617 	0.039218
42.79 	0.037320 	4582 	0.037064
42.83 	0.041887 	4536 	0.041241
42.87 	0.043565 	4499 	0.042914
42.91 	0.044434 	4456 	0.044172
42.95 	0.041893 	4416 	0.041230
42.99 	0.037856 	4385 	0.037589
43.03 	0.040849 	4333 	0.040714
43.07 	0.038175 	4296 	0.037766
43.11 	0.033373 	4255 	0.032662
43.15 	0.039705 	4206 	0.039427
43.19 	0.043872 	4194 	0.043314
43.23 	0.041165 	4154 	0.040460
43.27 	0.038977 	4105 	0.038691
43.31 	0.036774 	4079 	0.036486
43.35 	0.035962 	4032 	0.035091
43.39 	0.043228 	4002 	0.042204
43.43 	0.043687 	3960 	0.042627
43.47 	0.042336 	3921 	0.041589
43.51 	0.036368 	3877 	0.035311
43.55 	0.039136 	2964 	0.038939
43.59 	0.048110 	1746 	0.047103
43.63 	0.045954 	1001 	0.044784
43.67 	0.059761 	502 	0.059761
43.71 	0.020921 	239 	0.020921
43.75 	0.062500 	16 	0.062500