Folder: Bessy-II-KMC-II-insitu-sin2psi/Example_Data (part 132)

File: 25SC_s1_0052.006.dat
#F C:\frames\spec\25SC_s1_0052.006
#C title =s:52 frm:6 25SC_s1
#C wavelength =0.15406

#S 1  fr_average C:\frames\spec\25SC_s1_0052.006 C:\win32app\speccom\mask.axs chi 0 180 0 360 0.02
#C 2 theta =0.000000 to 180 deg
#C   q   =0.000000 to 81.568 nm^-1
#C  chi  =0.000000 to 360 deg
#C collumns:
#C  1 position (2theta or chi in degrees)
#C  2 average intensity (sum of all counts in the region divided with number of pixels)
#C  3 Number of pixels in region)
#C  4 error (sum of sqrt(intensity) for all pixels divided by number)
#N 4
#L TTh  Int  N_pix  Err
32.99 	0.065574 	61 	0.065574
33.03 	0.069015 	1391 	0.066488
33.07 	0.065366 	2050 	0.063366
33.11 	0.062815 	2579 	0.061906
33.15 	0.068356 	2999 	0.066794
33.19 	0.064034 	3342 	0.062456
33.23 	0.067840 	3523 	0.066510
33.27 	0.065840 	3630 	0.065033
33.31 	0.073497 	3660 	0.070936
33.35 	0.072279 	3694 	0.070694
33.39 	0.076428 	3729 	0.075014
33.43 	0.072853 	3761 	0.071140
33.47 	0.067404 	3798 	0.066324
33.51 	0.068414 	3815 	0.067032
33.55 	0.076763 	3843 	0.075391
33.59 	0.070361 	3880 	0.069153
33.63 	0.068895 	3919 	0.067699
33.67 	0.073091 	3954 	0.071905
33.71 	0.069434 	3975 	0.068402
33.75 	0.062766 	3999 	0.061447
33.79 	0.064341 	4041 	0.063302
33.83 	0.071852 	4050 	0.070405
33.87 	0.069083 	4111 	0.067658
33.91 	0.072307 	4149 	0.070166
33.95 	0.059316 	4181 	0.058195
33.99 	0.067143 	4200 	0.065888
34.03 	0.070924 	4244 	0.068991
34.07 	0.068650 	4268 	0.067415
34.11 	0.064854 	4302 	0.063900
34.15 	0.071808 	4331 	0.070591
34.19 	0.067171 	4362 	0.065962
34.23 	0.066697 	4393 	0.066164
34.27 	0.071687 	4422 	0.070097
34.31 	0.069762 	4458 	0.068448
34.35 	0.072480 	4484 	0.071174
34.39 	0.071302 	4502 	0.069480
34.43 	0.061467 	4539 	0.060177
34.47 	0.066855 	4592 	0.065197
34.51 	0.071429 	4606 	0.069902
34.55 	0.073444 	4643 	0.070900
34.59 	0.068663 	4675 	0.066909
34.63 	0.066454 	4710 	0.064962
34.67 	0.064965 	4741 	0.063853
34.71 	0.067142 	4766 	0.065790
34.75 	0.070923 	4808 	0.069461
34.79 	0.072554 	4824 	0.071218
34.83 	0.064582 	4862 	0.063478
34.87 	0.063681 	4868 	0.062478
34.91 	0.068210 	4882 	0.066510
34.95 	0.066667 	4890 	0.065329
34.99 	0.061875 	4897 	0.060798
35.03 	0.076269 	4943 	0.074097
35.07 	0.068219 	4940 	0.066677
35.11 	0.063877 	4947 	0.062575
35.15 	0.067045 	4937 	0.065364
35.19 	0.069607 	4942 	0.068185
35.23 	0.069970 	4945 	0.069022
35.27 	0.067704 	4948 	0.065928
35.31 	0.068721 	4933 	0.067533
35.35 	0.067382 	4942 	0.066315
35.39 	0.068756 	4945 	0.067335
35.43 	0.072370 	4933 	0.070213
35.47 	0.074021 	4931 	0.071764
35.51 	0.063743 	4926 	0.062554
35.55 	0.070172 	4945 	0.068257
35.59 	0.062083 	4945 	0.060780
35.63 	0.059478 	4943 	0.058648
35.67 	0.066775 	4942 	0.065115
35.71 	0.068058 	4937 	0.066851
35.75 	0.069966 	4931 	0.068639
35.79 	0.066910 	4932 	0.065603
35.83 	0.070158 	4946 	0.068736
35.87 	0.070689 	4923 	0.069142
35.91 	0.067993 	4927 	0.066923
35.95 	0.070571 	4917 	0.068665
35.99 	0.061956 	4939 	0.060770
36.03 	0.072021 	4943 	0.070599
36.07 	0.070865 	4939 	0.068848
36.11 	0.068574 	4929 	0.067742
36.15 	0.063576 	4939 	0.062390
36.19 	0.074089 	4940 	0.072192
36.23 	0.067477 	4935 	0.066033
36.27 	0.061320 	4925 	0.060249
36.31 	0.067167 	4928 	0.065979
36.35 	0.070197 	4929 	0.068533
36.39 	0.072953 	4921 	0.071524
36.43 	0.063718 	4928 	0.062529
36.47 	0.072731 	4936 	0.070892
36.51 	0.062437 	4933 	0.061724
36.55 	0.062107 	4927 	0.061631
36.59 	0.068232 	4939 	0.066572
36.63 	0.065910 	4931 	0.065078
36.67 	0.061460 	4930 	0.060035
36.71 	0.067669 	4921 	0.066122
36.75 	0.062702 	4944 	0.061498
36.79 	0.067466 	4921 	0.066276
36.83 	0.065514 	4915 	0.063706
36.87 	0.065129 	4944 	0.063807
36.91 	0.065169 	4941 	0.063746
36.95 	0.071559 	4933 	0.069540
36.99 	0.061803 	4935 	0.061091
37.03 	0.063769 	4924 	0.063056
37.07 	0.058967 	4935 	0.057780
37.11 	0.065856 	4935 	0.063957
37.15 	0.065186 	4909 	0.064590
37.19 	0.068832 	4925 	0.067405
37.23 	0.062424 	4918 	0.061709
37.27 	0.064569 	4894 	0.062873
37.31 	0.068490 	4935 	0.067541
37.35 	0.062981 	4938 	0.062131
37.39 	0.063070 	4931 	0.061625
37.43 	0.060624 	4932 	0.058962
37.47 	0.065328 	4929 	0.064020
37.51 	0.063653 	4933 	0.062584
37.55 	0.064706 	4930 	0.063636
37.59 	0.060020 	4915 	0.058948
37.63 	0.062411 	4919 	0.060466
37.67 	0.064641 	4904 	0.063088
37.71 	0.061067 	4929 	0.060711
37.75 	0.060729 	4940 	0.060017
37.79 	0.059838 	4930 	0.059481
37.83 	0.066463 	4920 	0.065273
37.87 	0.064790 	4939 	0.064079
37.91 	0.058418 	4930 	0.056992
37.95 	0.063605 	4921 	0.062157
37.99 	0.063111 	4912 	0.061799
38.03 	0.067427 	4909 	0.065279
38.07 	0.063964 	4909 	0.062890
38.11 	0.066869 	4935 	0.065188
38.15 	0.063440 	4918 	0.061992
38.19 	0.062069 	4930 	0.061099
38.23 	0.059538 	4938 	0.058451
38.27 	0.062475 	4930 	0.060692
38.31 	0.073879 	4927 	0.072690
38.35 	0.072849 	4928 	0.071185
38.39 	0.067835 	4909 	0.065786
38.43 	0.069569 	4916 	0.068000
38.47 	0.070308 	4907 	0.068995
38.51 	0.077656 	4932 	0.075855
38.55 	0.076783 	4936 	0.075477
38.59 	0.071487 	4924 	0.070396
38.63 	0.069050 	4924 	0.068217
38.67 	0.066032 	4937 	0.065201
38.71 	0.065191 	4924 	0.062812
38.75 	0.066572 	4927 	0.065601
38.79 	0.065261 	4934 	0.064312
38.83 	0.066070 	4919 	0.064999
38.87 	0.065974 	4911 	0.064066
38.91 	0.057312 	4903 	0.055998
38.95 	0.058154 	4918 	0.057300
38.99 	0.053676 	4937 	0.052964
39.03 	0.054722 	4934 	0.053654
39.07 	0.055443 	4924 	0.054372
39.11 	0.053539 	4931 	0.052826
39.15 	0.051068 	4915 	0.050472
39.19 	0.052268 	4917 	0.051533
39.23 	0.058274 	4925 	0.057442
39.27 	0.056415 	4910 	0.055461
39.31 	0.050983 	4884 	0.050503
39.35 	0.062817 	4935 	0.061986
39.39 	0.063299 	4929 	0.062823
39.43 	0.063450 	4933 	0.062500
39.47 	0.056063 	4923 	0.055587
39.51 	0.057067 	4924 	0.056354
39.55 	0.054279 	4919 	0.053565
39.59 	0.056393 	4912 	0.055796
39.63 	0.056481 	4922 	0.055767
39.67 	0.056177 	4913 	0.055224
39.71 	0.052298 	4895 	0.051102
39.75 	0.053166 	4928 	0.052215
39.79 	0.048721 	4926 	0.048364
39.83 	0.058776 	4934 	0.057945
39.87 	0.051371 	4925 	0.050657
39.91 	0.056278 	4922 	0.054830
39.95 	0.051882 	4915 	0.051048
39.99 	0.064477 	4932 	0.063408
40.03 	0.053369 	4928 	0.053131
40.07 	0.051798 	4923 	0.051560
40.11 	0.051058 	4916 	0.050700
40.15 	0.050885 	4913 	0.049932
40.19 	0.050923 	4929 	0.050329
40.23 	0.051095 	4932 	0.050501
40.27 	0.051043 	4937 	0.050213
40.31 	0.060944 	4939 	0.060232
40.35 	0.048587 	4919 	0.047873
40.39 	0.049077 	4931 	0.048840
40.43 	0.054856 	4922 	0.053785
40.47 	0.052460 	4918 	0.051507
40.51 	0.054653 	4922 	0.054177
40.55 	0.049511 	4908 	0.049014
40.59 	0.052461 	4937 	0.051868
40.63 	0.053753 	4930 	0.052564
40.67 	0.050689 	4932 	0.049620
40.71 	0.054745 	4932 	0.054032
40.75 	0.054350 	4931 	0.053400
40.79 	0.051381 	4924 	0.050291
40.83 	0.052151 	4928 	0.051438
40.87 	0.044846 	4928 	0.044608
40.91 	0.048345 	4923 	0.047274
40.95 	0.044576 	4913 	0.043960
40.99 	0.052396 	4924 	0.051445
41.03 	0.049745 	4905 	0.049029
41.07 	0.058215 	4930 	0.057264
41.11 	0.054509 	4935 	0.053678
41.15 	0.053633 	4941 	0.053040
41.19 	0.045639 	4930 	0.044926
41.23 	0.051630 	4939 	0.051155
41.27 	0.047658 	4931 	0.046945
41.31 	0.049463 	4933 	0.048988
41.35 	0.058526 	4938 	0.056984
41.39 	0.051895 	4933 	0.051302
41.43 	0.039765 	4929 	0.039170
41.47 	0.053999 	4926 	0.052810
41.51 	0.056275 	4940 	0.055564
41.55 	0.050051 	4935 	0.049576
41.59 	0.054328 	4933 	0.053378
41.63 	0.052248 	4938 	0.051299
41.67 	0.047976 	4940 	0.047501
41.71 	0.049250 	4934 	0.048300
41.75 	0.054778 	4929 	0.053827
41.79 	0.048544 	4944 	0.047833
41.83 	0.050933 	4928 	0.050101
41.87 	0.053293 	4935 	0.052462
41.91 	0.051661 	4936 	0.050831
41.95 	0.041777 	4931 	0.040807
41.99 	0.047299 	4905 	0.046940
42.03 	0.049808 	4939 	0.049333
42.07 	0.046384 	4937 	0.045791
42.11 	0.047523 	4945 	0.046812
42.15 	0.046780 	4938 	0.046187
42.19 	0.052160 	4908 	0.051444
42.23 	0.044563 	4892 	0.043824
42.27 	0.043906 	4874 	0.043546
42.31 	0.053141 	4855 	0.052297
42.35 	0.044853 	4838 	0.043744
42.39 	0.049126 	4804 	0.048394
42.43 	0.051544 	4792 	0.050811
42.47 	0.050157 	4765 	0.049789
42.51 	0.045330 	4743 	0.044712
42.55 	0.047579 	4708 	0.047330
42.59 	0.049270 	4729 	0.048755
42.63 	0.045657 	4709 	0.045160
42.67 	0.049530 	4684 	0.048780
42.71 	0.046751 	4663 	0.045872
42.75 	0.045484 	4617 	0.044850
42.79 	0.051069 	4582 	0.050174
42.83 	0.053792 	4536 	0.052759
42.87 	0.046899 	4499 	0.046118
42.91 	0.049596 	4456 	0.048654
42.95 	0.040987 	4416 	0.040722
42.99 	0.044698 	4385 	0.044142
43.03 	0.048696 	4333 	0.047885
43.07 	0.050745 	4296 	0.050063
43.11 	0.052879 	4255 	0.052741
43.15 	0.048264 	4206 	0.047568
43.19 	0.048164 	4194 	0.047326
43.23 	0.056091 	4154 	0.054398
43.27 	0.051157 	4105 	0.050420
43.31 	0.046825 	4079 	0.046251
43.35 	0.046131 	4032 	0.045526
43.39 	0.050475 	4002 	0.049889
43.43 	0.047475 	3960 	0.047179
43.47 	0.051262 	3921 	0.050515
43.51 	0.047717 	3877 	0.047113
43.55 	0.045884 	2964 	0.045489
43.59 	0.041810 	1746 	0.041810
43.63 	0.037962 	1001 	0.037962
43.67 	0.045817 	502 	0.045817
43.71 	0.046025 	239 	0.046025
43.75 	0.000000 	16 	0.000000

File: 25SC_s1_0052.007.dat
#F C:\frames\spec\25SC_s1_0052.007
#C title =s:52 frm:7 25SC_s1
#C wavelength =0.15406

#S 1  fr_average C:\frames\spec\25SC_s1_0052.007 C:\win32app\speccom\mask.axs chi 0 180 0 360 0.02
#C 2 theta =0.000000 to 180 deg
#C   q   =0.000000 to 81.568 nm^-1
#C  chi  =0.000000 to 360 deg
#C collumns:
#C  1 position (2theta or chi in degrees)
#C  2 average intensity (sum of all counts in the region divided with number of pixels)
#C  3 Number of pixels in region)
#C  4 error (sum of sqrt(intensity) for all pixels divided by number)
#N 4
#L TTh  Int  N_pix  Err
32.99 	0.081967 	61 	0.081967
33.03 	0.069015 	1391 	0.067331
33.07 	0.067805 	2050 	0.067233
33.11 	0.068244 	2579 	0.066199
33.15 	0.063688 	2999 	0.062679
33.19 	0.068821 	3342 	0.067594
33.23 	0.070111 	3523 	0.067783
33.27 	0.068044 	3630 	0.066888
33.31 	0.068852 	3660 	0.067252
33.35 	0.067407 	3694 	0.065662
33.39 	0.073478 	3729 	0.072536
33.43 	0.070460 	3761 	0.069188
33.47 	0.071617 	3798 	0.070537
33.51 	0.070511 	3815 	0.068490
33.55 	0.065834 	3843 	0.064310
33.59 	0.067268 	3880 	0.066035
33.63 	0.068895 	3919 	0.066903
33.67 	0.074102 	3954 	0.072621
33.71 	0.065660 	3975 	0.063278
33.75 	0.075019 	3999 	0.073383
33.79 	0.072507 	4041 	0.071202
33.83 	0.072840 	4050 	0.071225
33.87 	0.068596 	4111 	0.067741
33.91 	0.068691 	4149 	0.067539
33.95 	0.071514 	4181 	0.070253
33.99 	0.067619 	4200 	0.066201
34.03 	0.063384 	4244 	0.062555
34.07 	0.062090 	4268 	0.060443
34.11 	0.068340 	4302 	0.067251
34.15 	0.063496 	4331 	0.061986
34.19 	0.068776 	4362 	0.067008
34.23 	0.061689 	4393 	0.060356
34.27 	0.073722 	4422 	0.072000
34.31 	0.070884 	4458 	0.069285
34.35 	0.071811 	4484 	0.069721
34.39 	0.068192 	4502 	0.067151
34.43 	0.072042 	4539 	0.071010
34.47 	0.071864 	4592 	0.070078
34.51 	0.071863 	4606 	0.069955
34.55 	0.071290 	4643 	0.070028
34.59 	0.065668 	4675 	0.064040
34.63 	0.077070 	4710 	0.075578
34.67 	0.070238 	4741 	0.069373
34.71 	0.067142 	4766 	0.065299
34.75 	0.072587 	4808 	0.070516
34.79 	0.066750 	4824 	0.065900
34.83 	0.068490 	4862 	0.067165
34.87 	0.070255 	4868 	0.069051
34.91 	0.070258 	4882 	0.069418
34.95 	0.073620 	4890 	0.071823
34.99 	0.070247 	4897 	0.069170
35.03 	0.075258 	4943 	0.073560
35.07 	0.072267 	4940 	0.071081
35.11 	0.070952 	4947 	0.069294
35.15 	0.073526 	4937 	0.072083
35.19 	0.066977 	4942 	0.065298
35.23 	0.071790 	4945 	0.070250
35.27 	0.077001 	4948 	0.074495
35.31 	0.066896 	4933 	0.065471
35.35 	0.067179 	4942 	0.065757
35.39 	0.064510 	4945 	0.063443
35.43 	0.072167 	4933 	0.071336
35.47 	0.071791 	4931 	0.070603
35.51 	0.073285 	4926 	0.071263
35.55 	0.072801 	4945 	0.071261
35.59 	0.071587 	4945 	0.070877
35.63 	0.068784 	4943 	0.067362
35.67 	0.068798 	4942 	0.067119
35.71 	0.074742 	4937 	0.072349
35.75 	0.075441 	4931 	0.073521
35.79 	0.068938 	4932 	0.066918
35.83 	0.067327 	4946 	0.066143
35.87 	0.065814 	4923 	0.064505
35.91 	0.067384 	4927 	0.065482
35.95 	0.067521 	4917 	0.066806
35.99 	0.068030 	4939 	0.066725
36.03 	0.070200 	4943 	0.068640
36.07 	0.065398 	4939 	0.063619
36.11 	0.063502 	4929 	0.062432
36.15 	0.067423 	4939 	0.065762
36.19 	0.065587 	4940 	0.064283
36.23 	0.067275 	4935 	0.065613
36.27 	0.061523 	4925 	0.060452
36.31 	0.070008 	4928 	0.068582
36.35 	0.067356 	4929 	0.065811
36.39 	0.065231 	4921 	0.063683
36.43 	0.068994 	4928 	0.066735
36.47 	0.069084 	4936 	0.067898
36.51 	0.069126 	4933 	0.067464
36.55 	0.064948 	4927 	0.063997
36.59 	0.060539 	4939 	0.059590
36.63 	0.064693 	4931 	0.062772
36.67 	0.063286 	4930 	0.062217
36.71 	0.064418 	4921 	0.062751
36.75 	0.071804 	4944 	0.070619
36.79 	0.067872 	4921 	0.066444
36.83 	0.067955 	4915 	0.066644
36.87 	0.060275 	4944 	0.059446
36.91 	0.064764 	4941 	0.063460
36.95 	0.068315 	4933 	0.066415
36.99 	0.068896 	4935 	0.066878
37.03 	0.065191 	4924 	0.063744
37.07 	0.070922 	4935 	0.068766
37.11 	0.059777 	4935 	0.058353
37.15 	0.068853 	4909 	0.067779
37.19 	0.061523 	4925 	0.061047
37.23 	0.067100 	4918 	0.065433
37.27 	0.064978 	4894 	0.063302
37.31 	0.064438 	4935 	0.063132
37.35 	0.066424 	4938 	0.065119
37.39 	0.066315 	4931 	0.064890
37.43 	0.060827 	4932 	0.059877
37.47 	0.067965 	4929 	0.066539
37.51 	0.060612 	4933 	0.059168
37.55 	0.065923 	4930 	0.063883
37.59 	0.059613 	4915 	0.058660
37.63 	0.065054 	4919 	0.063863
37.67 	0.059747 	4904 	0.058672
37.71 	0.064922 	4929 	0.064328
37.75 	0.066802 	4940 	0.065497
37.79 	0.067140 	4930 	0.065476
37.83 	0.064634 	4920 	0.063563
37.87 	0.064790 	4939 	0.063703
37.91 	0.064706 	4930 	0.063231
37.95 	0.060354 	4921 	0.059877
37.99 	0.062500 	4912 	0.061188
38.03 	0.067223 	4909 	0.066388
38.07 	0.061316 	4909 	0.060481
38.11 	0.058156 	4935 	0.057088
38.15 	0.063237 	4918 	0.062403
38.19 	0.064097 	4930 	0.062890
38.23 	0.066424 	4938 	0.065356
38.27 	0.067546 	4930 	0.066476
38.31 	0.067790 	4927 	0.066700
38.35 	0.069805 	4928 	0.068498
38.39 	0.071705 	4909 	0.070631
38.43 	0.076485 	4916 	0.074797
38.47 	0.076829 	4907 	0.075635
38.51 	0.066707 	4932 	0.065519
38.55 	0.072326 	4936 	0.070427
38.59 	0.067831 	4924 	0.066503
38.63 	0.071284 	4924 	0.070332
38.67 	0.072716 	4937 	0.070442
38.71 	0.064785 	4924 	0.064170
38.75 	0.067993 	4927 	0.066685
38.79 	0.059789 	4934 	0.058602
38.83 	0.063428 	4919 	0.062475
38.87 	0.059255 	4911 	0.058658
38.91 	0.059759 	4903 	0.059162
38.95 	0.065270 	4918 	0.063960
38.99 	0.060766 	4937 	0.059916
39.03 	0.059181 	4934 	0.058113
39.07 	0.058286 	4924 	0.056839
39.11 	0.061854 	4931 	0.061022
39.15 	0.058800 	4915 	0.058204
39.19 	0.058572 	4917 	0.057738
39.23 	0.056650 	4925 	0.055679
39.27 	0.052953 	4910 	0.052476
39.31 	0.054054 	4884 	0.053195
39.35 	0.055724 	4935 	0.054894
39.39 	0.058633 	4929 	0.057682
39.43 	0.052301 	4933 	0.051588
39.47 	0.061751 	4923 	0.060204
39.51 	0.056255 	4924 	0.055541
39.55 	0.059565 	4919 	0.058970
39.59 	0.059650 	4912 	0.058934
39.63 	0.060138 	4922 	0.059543
39.67 	0.057399 	4913 	0.055610
39.71 	0.059040 	4895 	0.058082
39.75 	0.058847 	4928 	0.057639
39.79 	0.063337 	4926 	0.062267
39.83 	0.053304 	4934 	0.053066
39.87 	0.052995 	4925 	0.052400
39.91 	0.060748 	4922 	0.059915
39.95 	0.055544 	4915 	0.055306
39.99 	0.054947 	4932 	0.053878
40.03 	0.053369 	4928 	0.052893
40.07 	0.056063 	4923 	0.055468
40.11 	0.052889 	4916 	0.052054
40.15 	0.053124 	4913 	0.052151
40.19 	0.056401 	4929 	0.055569
40.23 	0.058394 	4932 	0.057919
40.27 	0.055702 	4937 	0.054990
40.31 	0.053250 	4939 	0.052182
40.35 	0.057329 	4919 	0.056376
40.39 	0.053944 	4931 	0.053350
40.43 	0.051199 	4922 	0.050247
40.47 	0.055307 	4918 	0.054592
40.51 	0.059529 	4922 	0.058577
40.55 	0.050937 	4908 	0.050102
40.59 	0.053069 	4937 	0.052594
40.63 	0.052333 	4930 	0.051620
40.67 	0.058394 	4932 	0.057800
40.71 	0.052109 	4932 	0.051277
40.75 	0.050091 	4931 	0.049735
40.79 	0.058083 	4924 	0.057131
40.83 	0.053571 	4928 	0.052383
40.87 	0.056209 	4928 	0.055615
40.91 	0.056063 	4923 	0.055211
40.95 	0.062080 	4913 	0.061007
40.99 	0.058286 	4924 	0.057334
41.03 	0.048114 	4905 	0.047398
41.07 	0.050304 	4930 	0.049948
41.11 	0.056130 	4935 	0.054923
41.15 	0.055657 	4941 	0.054590
41.19 	0.049899 	4930 	0.049304
41.23 	0.056692 	4939 	0.055031
41.27 	0.058203 	4931 	0.056639
41.31 	0.057977 	4933 	0.057146
41.35 	0.054273 	4938 	0.053304
41.39 	0.052504 	4933 	0.051791
41.43 	0.054372 	4929 	0.053897
41.47 	0.051360 	4926 	0.049695
41.51 	0.056275 	4940 	0.054971
41.55 	0.055724 	4935 	0.055131
41.59 	0.048247 	4933 	0.047890
41.63 	0.050425 	4938 	0.049714
41.67 	0.050607 	4940 	0.049521
41.71 	0.053709 	4934 	0.052878
41.75 	0.053358 	4929 	0.052882
41.79 	0.054207 	4944 	0.053496
41.83 	0.058847 	4928 	0.057302
41.87 	0.046606 	4935 	0.044925
41.91 	0.051053 	4936 	0.050460
41.95 	0.055364 	4931 	0.054532
41.99 	0.054230 	4905 	0.053394
42.03 	0.050010 	4939 	0.048805
42.07 	0.046384 	4937 	0.045673
42.11 	0.052578 	4945 	0.051986
42.15 	0.047185 	4938 	0.046711
42.19 	0.048492 	4908 	0.047179
42.23 	0.053557 	4892 	0.052599
42.27 	0.047805 	4874 	0.046963
42.31 	0.046962 	4855 	0.046721
42.35 	0.050641 	4838 	0.049551
42.39 	0.051624 	4804 	0.050770
42.43 	0.047162 	4792 	0.046795
42.47 	0.046380 	4765 	0.045765
42.51 	0.050601 	4743 	0.049736
42.55 	0.053738 	4708 	0.052743
42.59 	0.048425 	4729 	0.047929
42.63 	0.051816 	4709 	0.050945
42.67 	0.050384 	4684 	0.049884
42.71 	0.045250 	4663 	0.044873
42.75 	0.047217 	4617 	0.046709
42.79 	0.047577 	4582 	0.046938
42.83 	0.047178 	4536 	0.046274
42.87 	0.048900 	4499 	0.048379
42.91 	0.049596 	4456 	0.048544
42.95 	0.057292 	4416 	0.056230
42.99 	0.046066 	4385 	0.044997
43.03 	0.055389 	4333 	0.054443
43.07 	0.042831 	4296 	0.042149
43.11 	0.054289 	4255 	0.053738
43.15 	0.047789 	4206 	0.047232
43.19 	0.040296 	4194 	0.040156
43.23 	0.052961 	4154 	0.052256
43.27 	0.047503 	4105 	0.047218
43.31 	0.044619 	4079 	0.044475
43.35 	0.053075 	4032 	0.052494
43.39 	0.051724 	4002 	0.051285
43.43 	0.046465 	3960 	0.045873
43.47 	0.047182 	3921 	0.046883
43.51 	0.042817 	3877 	0.042666
43.55 	0.045547 	2964 	0.044954
43.59 	0.040092 	1746 	0.039421
43.63 	0.041958 	1001 	0.040788
43.67 	0.049801 	502 	0.048634
43.71 	0.046025 	239 	0.046025
43.75 	0.000000 	16 	0.000000