Folder: Bessy-II-KMC-II-insitu-sin2psi/Example_Data (part 115)

File: 25SC_s1_0046.002.dat
#F C:\frames\spec\25SC_s1_0046.002
#C title =s:46 frm:2 25SC_s1
#C wavelength =0.15406

#S 1  fr_average C:\frames\spec\25SC_s1_0046.002 C:\win32app\speccom\mask.axs chi 0 180 0 360 0.02
#C 2 theta =0.000000 to 180 deg
#C   q   =0.000000 to 81.568 nm^-1
#C  chi  =0.000000 to 360 deg
#C collumns:
#C  1 position (2theta or chi in degrees)
#C  2 average intensity (sum of all counts in the region divided with number of pixels)
#C  3 Number of pixels in region)
#C  4 error (sum of sqrt(intensity) for all pixels divided by number)
#N 4
#L TTh  Int  N_pix  Err
32.99 	0.049180 	61 	0.049180
33.03 	0.067577 	1391 	0.065823
33.07 	0.061951 	2050 	0.059951
33.11 	0.060101 	2579 	0.058738
33.15 	0.060687 	2999 	0.059515
33.19 	0.062837 	3342 	0.061610
33.23 	0.057621 	3523 	0.057289
33.27 	0.055372 	3630 	0.054726
33.31 	0.062842 	3660 	0.061561
33.35 	0.058202 	3694 	0.057410
33.39 	0.061947 	3729 	0.060036
33.43 	0.062749 	3761 	0.061659
33.47 	0.062138 	3798 	0.060441
33.51 	0.054522 	3815 	0.053600
33.55 	0.054905 	3843 	0.054295
33.59 	0.063918 	3880 	0.063012
33.63 	0.064047 	3919 	0.063150
33.67 	0.058675 	3954 	0.057761
33.71 	0.057358 	3975 	0.056327
33.75 	0.059765 	3999 	0.058007
33.79 	0.065083 	4041 	0.064068
33.83 	0.063457 	4050 	0.062878
33.87 	0.055704 	4111 	0.054564
33.91 	0.056399 	4149 	0.055411
33.95 	0.064817 	4181 	0.063136
33.99 	0.060000 	4200 	0.059163
34.03 	0.065504 	4244 	0.064400
34.07 	0.065136 	4268 	0.063763
34.11 	0.063924 	4302 	0.062834
34.15 	0.055414 	4331 	0.054738
34.19 	0.063044 	4362 	0.062239
34.23 	0.055998 	4393 	0.055331
34.27 	0.057666 	4422 	0.056452
34.31 	0.053387 	4458 	0.053256
34.35 	0.058207 	4484 	0.057031
34.39 	0.056197 	4502 	0.055547
34.43 	0.056620 	4539 	0.055588
34.47 	0.055531 	4592 	0.054383
34.51 	0.055797 	4606 	0.054652
34.55 	0.054060 	4643 	0.053555
34.59 	0.056898 	4675 	0.055896
34.63 	0.056051 	4710 	0.055429
34.67 	0.056528 	4741 	0.055540
34.71 	0.060638 	4766 	0.058917
34.75 	0.059692 	4808 	0.058210
34.79 	0.061360 	4824 	0.060024
34.83 	0.058618 	4862 	0.057895
34.87 	0.059573 	4868 	0.058851
34.91 	0.059402 	4882 	0.057942
34.95 	0.056033 	4890 	0.055194
34.99 	0.060037 	4897 	0.058960
35.03 	0.058669 	4943 	0.057721
35.07 	0.056478 	4940 	0.055411
35.11 	0.059632 	4947 	0.058547
35.15 	0.060361 	4937 	0.059886
35.19 	0.056860 	4942 	0.055674
35.23 	0.062285 	4945 	0.061456
35.27 	0.058610 	4948 	0.057032
35.31 	0.057571 	4933 	0.055889
35.35 	0.047349 	4942 	0.046638
35.39 	0.054803 	4945 	0.054092
35.43 	0.055950 	4933 	0.055356
35.47 	0.054147 	4931 	0.053553
35.51 	0.060089 	4926 	0.058762
35.55 	0.053792 	4945 	0.053318
35.59 	0.061072 	4945 	0.059413
35.63 	0.061501 	4943 	0.060316
35.67 	0.056253 	4942 	0.054593
35.71 	0.054892 	4937 	0.054536
35.75 	0.059623 	4931 	0.058791
35.79 	0.054947 	4932 	0.053878
35.83 	0.054994 	4946 	0.053928
35.87 	0.052813 	4923 	0.051980
35.91 	0.050132 	4927 	0.049537
35.95 	0.053895 	4917 	0.053299
35.99 	0.059729 	4939 	0.058305
36.03 	0.054623 	4943 	0.053675
36.07 	0.057299 	4939 	0.055994
36.11 	0.056401 	4929 	0.055688
36.15 	0.057299 	4939 	0.056350
36.19 	0.053239 	4940 	0.051934
36.23 	0.057143 	4935 	0.056431
36.27 	0.057056 	4925 	0.056223
36.31 	0.057021 	4928 	0.055575
36.35 	0.056604 	4929 	0.056128
36.39 	0.060150 	4921 	0.059555
36.43 	0.059659 	4928 	0.058233
36.47 	0.055511 	4936 	0.054798
36.51 	0.057774 	4933 	0.056943
36.55 	0.054191 	4927 	0.053359
36.59 	0.063576 	4939 	0.062152
36.63 	0.055972 	4931 	0.055378
36.67 	0.059026 	4930 	0.058551
36.71 	0.054867 	4921 	0.053538
36.75 	0.053398 	4944 	0.052687
36.79 	0.045926 	4921 	0.045449
36.83 	0.052696 	4915 	0.051266
36.87 	0.052791 	4944 	0.052080
36.91 	0.058693 	4941 	0.057388
36.95 	0.057166 	4933 	0.056335
36.99 	0.053495 	4935 	0.052526
37.03 	0.059301 	4924 	0.058231
37.07 	0.056535 	4935 	0.055348
37.11 	0.052888 	4935 	0.052413
37.15 	0.052964 	4909 	0.052009
37.19 	0.054619 	4925 	0.053668
37.23 	0.053274 	4918 	0.052321
37.27 	0.054352 	4894 	0.053634
37.31 	0.052685 	4935 	0.051379
37.35 	0.052248 	4938 	0.051417
37.39 	0.054350 	4931 	0.053637
37.43 	0.054745 	4932 	0.053794
37.47 	0.051735 	4929 	0.050903
37.51 	0.054531 	4933 	0.053699
37.55 	0.050304 	4930 	0.050185
37.59 	0.050458 	4915 	0.050100
37.63 	0.049604 	4919 	0.048889
37.67 	0.054649 	4904 	0.053933
37.71 	0.048691 	4929 	0.047365
37.75 	0.054656 	4940 	0.054063
37.79 	0.051116 	4930 	0.050046
37.83 	0.058537 	4920 	0.057227
37.87 	0.051630 	4939 	0.051274
37.91 	0.055375 	4930 	0.054662
37.95 	0.056696 	4921 	0.056101
37.99 	0.051710 	4912 	0.050875
38.03 	0.054390 	4909 	0.053316
38.07 	0.051945 	4909 	0.051349
38.11 	0.048430 	4935 	0.047955
38.15 	0.059780 	4918 	0.059304
38.19 	0.059026 	4930 	0.057838
38.23 	0.065816 	4938 	0.064867
38.27 	0.063286 	4930 	0.062217
38.31 	0.057033 	4927 	0.055963
38.35 	0.059862 	4928 	0.058911
38.39 	0.066001 	4909 	0.064331
38.43 	0.066517 	4916 	0.065207
38.47 	0.061137 	4907 	0.059585
38.51 	0.064680 	4932 	0.063848
38.55 	0.065843 	4936 	0.063668
38.59 	0.064785 	4924 	0.063476
38.63 	0.057677 	4924 	0.056705
38.67 	0.052866 	4937 	0.052154
38.71 	0.057677 	4924 	0.056249
38.75 	0.059671 	4927 	0.058601
38.79 	0.052493 	4934 	0.051405
38.83 	0.051433 	4919 	0.050600
38.87 	0.052942 	4911 	0.051372
38.91 	0.050989 	4903 	0.049794
38.95 	0.047580 	4918 	0.047223
38.99 	0.046992 	4937 	0.046162
39.03 	0.042359 	4934 	0.042003
39.07 	0.045491 	4924 	0.044897
39.11 	0.048469 	4931 	0.048112
39.15 	0.045168 	4915 	0.044453
39.19 	0.046980 	4917 	0.046622
39.23 	0.045685 	4925 	0.045309
39.27 	0.047658 	4910 	0.046087
39.31 	0.046274 	4884 	0.045554
39.35 	0.050456 	4935 	0.049862
39.39 	0.043417 	4929 	0.042822
39.43 	0.049463 	4933 	0.049107
39.47 	0.050985 	4923 	0.049914
39.51 	0.040820 	4924 	0.040345
39.55 	0.046351 	4919 	0.045755
39.59 	0.049267 	4912 	0.048432
39.63 	0.047745 	4922 	0.046912
39.67 	0.041726 	4913 	0.041130
39.71 	0.049234 	4895 	0.047918
39.75 	0.044034 	4928 	0.043677
39.79 	0.046488 	4926 	0.045656
39.83 	0.043575 	4934 	0.043338
39.87 	0.047107 	4925 	0.046393
39.91 	0.040634 	4922 	0.040396
39.95 	0.040285 	4915 	0.040285
39.99 	0.048865 	4932 	0.048152
40.03 	0.040584 	4928 	0.040228
40.07 	0.042657 	4923 	0.042062
40.11 	0.044548 	4916 	0.043953
40.15 	0.044779 	4913 	0.043825
40.19 	0.042199 	4929 	0.041843
40.23 	0.040957 	4932 	0.040719
40.27 	0.049423 	4937 	0.048592
40.31 	0.039077 	4939 	0.038602
40.35 	0.047367 	4919 	0.046415
40.39 	0.043399 	4931 	0.042924
40.43 	0.040634 	4922 	0.039801
40.47 	0.045750 	4918 	0.045393
40.51 	0.044697 	4922 	0.043864
40.55 	0.041361 	4908 	0.040764
40.59 	0.043549 	4937 	0.043074
40.63 	0.040771 	4930 	0.040533
40.67 	0.042376 	4932 	0.041426
40.71 	0.044809 	4932 	0.044334
40.75 	0.045427 	4931 	0.045071
40.79 	0.042648 	4924 	0.042410
40.83 	0.043019 	4928 	0.042425
40.87 	0.043019 	4928 	0.042544
40.91 	0.042454 	4923 	0.041740
40.95 	0.039691 	4913 	0.039452
40.99 	0.051787 	4924 	0.050677
41.03 	0.048522 	4905 	0.048044
41.07 	0.035903 	4930 	0.035784
41.11 	0.042756 	4935 	0.042518
41.15 	0.042097 	4941 	0.041741
41.19 	0.039351 	4930 	0.038994
41.23 	0.047580 	4939 	0.046987
41.27 	0.043602 	4931 	0.043245
41.31 	0.039124 	4933 	0.038649
41.35 	0.037667 	4938 	0.037430
41.39 	0.043787 	4933 	0.043312
41.43 	0.040170 	4929 	0.039933
41.47 	0.040601 	4926 	0.040482
41.51 	0.042713 	4940 	0.041882
41.55 	0.045187 	4935 	0.044475
41.59 	0.046827 	4933 	0.046471
41.63 	0.040907 	4938 	0.040314
41.67 	0.040891 	4940 	0.040535
41.71 	0.040130 	4934 	0.039892
41.75 	0.041185 	4929 	0.040333
41.79 	0.039442 	4944 	0.039086
41.83 	0.039367 	4928 	0.039010
41.87 	0.043972 	4935 	0.043616
41.91 	0.042950 	4936 	0.042594
41.95 	0.046238 	4931 	0.045882
41.99 	0.035270 	4905 	0.034792
42.03 	0.036850 	4939 	0.036494
42.07 	0.042333 	4937 	0.042215
42.11 	0.037614 	4945 	0.037140
42.15 	0.038275 	4938 	0.037800
42.19 	0.036064 	4908 	0.035706
42.23 	0.039657 	4892 	0.039178
42.27 	0.039598 	4874 	0.039478
42.31 	0.040165 	4855 	0.039923
42.35 	0.034105 	4838 	0.033984
42.39 	0.043505 	4804 	0.043018
42.43 	0.042988 	4792 	0.042622
42.47 	0.039874 	4765 	0.039382
42.51 	0.039637 	4743 	0.039020
42.55 	0.034410 	4708 	0.033663
42.59 	0.034468 	4729 	0.033973
42.63 	0.035464 	4709 	0.035215
42.67 	0.035226 	4684 	0.035101
42.71 	0.037958 	4663 	0.037330
42.75 	0.039853 	4617 	0.039451
42.79 	0.036229 	4582 	0.035717
42.83 	0.037698 	4536 	0.037440
42.87 	0.038898 	4499 	0.038377
42.91 	0.037253 	4456 	0.036596
42.95 	0.042572 	4416 	0.042440
42.99 	0.035804 	4385 	0.035270
43.03 	0.035541 	4333 	0.035271
43.07 	0.038873 	4296 	0.038737
43.11 	0.040658 	4255 	0.040107
43.15 	0.036614 	4206 	0.036336
43.19 	0.040534 	4194 	0.040255
43.23 	0.034425 	4154 	0.034425
43.27 	0.037759 	4105 	0.037188
43.31 	0.034812 	4079 	0.034669
43.35 	0.039187 	4032 	0.039041
43.39 	0.035732 	4002 	0.035147
43.43 	0.040152 	3960 	0.040004
43.47 	0.039531 	3921 	0.039083
43.51 	0.038432 	3877 	0.038281
43.55 	0.039136 	2964 	0.038543
43.59 	0.038373 	1746 	0.037702
43.63 	0.031968 	1001 	0.031968
43.67 	0.033865 	502 	0.033865
43.71 	0.029289 	239 	0.029289
43.75 	0.000000 	16 	0.000000

File: 25SC_s1_0046.003.dat
#F C:\frames\spec\25SC_s1_0046.003
#C title =s:46 frm:3 25SC_s1
#C wavelength =0.15406

#S 1  fr_average C:\frames\spec\25SC_s1_0046.003 C:\win32app\speccom\mask.axs chi 0 180 0 360 0.02
#C 2 theta =0.000000 to 180 deg
#C   q   =0.000000 to 81.568 nm^-1
#C  chi  =0.000000 to 360 deg
#C collumns:
#C  1 position (2theta or chi in degrees)
#C  2 average intensity (sum of all counts in the region divided with number of pixels)
#C  3 Number of pixels in region)
#C  4 error (sum of sqrt(intensity) for all pixels divided by number)
#N 4
#L TTh  Int  N_pix  Err
32.99 	0.081967 	61 	0.072364
33.03 	0.058950 	1391 	0.057687
33.07 	0.061951 	2050 	0.059951
33.11 	0.052346 	2579 	0.051437
33.15 	0.062354 	2999 	0.060987
33.19 	0.057451 	3342 	0.056750
33.23 	0.059041 	3523 	0.058708
33.27 	0.050413 	3630 	0.049768
33.31 	0.056011 	3660 	0.055051
33.35 	0.054683 	3694 	0.053415
33.39 	0.061142 	3729 	0.060357
33.43 	0.060888 	3761 	0.060421
33.47 	0.062401 	3798 	0.061476
33.51 	0.063434 	3815 	0.062513
33.55 	0.058288 	3843 	0.057831
33.59 	0.063402 	3880 	0.062647
33.63 	0.059709 	3919 	0.058812
33.67 	0.057410 	3954 	0.055929
33.71 	0.058616 	3975 	0.057585
33.75 	0.063016 	3999 	0.061551
33.79 	0.057906 	4041 	0.056602
33.83 	0.065432 	4050 	0.064420
33.87 	0.060083 	4111 	0.059085
33.91 	0.053507 	4149 	0.053083
33.95 	0.054532 	4181 	0.053972
33.99 	0.057619 	4200 	0.055760
34.03 	0.053252 	4244 	0.053114
34.07 	0.058810 	4268 	0.057849
34.11 	0.056950 	4302 	0.055452
34.15 	0.052413 	4331 	0.051038
34.19 	0.050665 	4362 	0.049859
34.23 	0.063738 	4393 	0.063071
34.27 	0.054274 	4422 	0.053612
34.31 	0.051368 	4458 	0.051106
34.35 	0.058207 	4484 	0.057292
34.39 	0.056641 	4502 	0.055340
34.43 	0.059705 	4539 	0.058801
34.47 	0.055749 	4592 	0.054984
34.51 	0.061007 	4606 	0.060499
34.55 	0.059660 	4643 	0.058777
34.59 	0.060321 	4675 	0.059444
34.63 	0.061571 	4710 	0.060079
34.67 	0.056106 	4741 	0.054871
34.71 	0.054553 	4766 	0.054061
34.75 	0.066140 	4808 	0.065287
34.79 	0.057007 	4824 	0.056521
34.83 	0.058001 	4862 	0.056314
34.87 	0.058956 	4868 	0.058114
34.91 	0.062474 	4882 	0.061634
34.95 	0.056851 	4890 	0.056372
34.99 	0.055340 	4897 	0.054024
35.03 	0.054420 	4943 	0.053472
35.07 	0.056275 	4940 	0.055564
35.11 	0.059834 	4947 	0.058413
35.15 	0.055499 	4937 	0.054906
35.19 	0.058681 	4942 	0.057614
35.23 	0.066330 	4945 	0.065027
35.27 	0.060226 	4948 	0.059398
35.31 	0.049868 	4933 	0.048562
35.35 	0.057062 	4942 	0.056351
35.39 	0.063094 	4945 	0.061436
35.43 	0.050071 	4933 	0.049596
35.47 	0.056986 	4931 	0.056254
35.51 	0.061104 	4926 	0.059796
35.55 	0.059858 	4945 	0.058674
35.59 	0.059050 	4945 	0.057865
35.63 	0.055230 	4943 	0.054519
35.67 	0.054229 	4942 	0.053854
35.71 	0.062386 	4937 	0.061200
35.75 	0.057798 	4931 	0.056313
35.79 	0.055556 	4932 	0.053992
35.83 	0.061868 	4946 	0.060191
35.87 	0.058704 	4923 	0.057871
35.91 	0.051959 	4927 	0.050889
35.95 	0.058572 	4917 	0.057738
35.99 	0.058919 	4939 	0.058089
36.03 	0.057455 	4943 	0.057099
36.07 	0.052642 	4939 	0.051456
36.11 	0.053155 	4929 	0.052679
36.15 	0.059931 	4939 	0.059457
36.19 	0.056478 	4940 	0.055292
36.23 	0.053495 	4935 	0.052546
36.27 	0.060711 	4925 	0.059640
36.31 	0.054180 	4928 	0.053348
36.35 	0.056807 	4929 	0.055480
36.39 	0.053648 	4921 	0.053291
36.43 	0.058644 	4928 	0.057218
36.47 	0.060170 	4936 	0.059102
36.51 	0.051895 	4933 	0.051302
36.55 	0.058859 	4927 	0.058384
36.59 	0.054869 	4939 	0.054158
36.63 	0.055972 	4931 	0.055378
36.67 	0.055578 	4930 	0.054252
36.71 	0.054867 	4921 	0.053438
36.75 	0.058050 	4944 	0.056865
36.79 	0.054257 	4921 	0.053662
36.83 	0.051272 	4915 	0.050676
36.87 	0.058050 	4944 	0.056865
36.91 	0.059907 	4941 	0.058702
36.95 	0.051490 	4933 	0.051252
36.99 	0.057548 	4935 	0.056599
37.03 	0.054833 	4924 	0.054001
37.07 	0.055927 	4935 	0.054977
37.11 	0.053698 	4935 	0.052748
37.15 	0.054390 	4909 	0.053316
37.19 	0.054416 	4925 	0.053188
37.23 	0.055714 	4918 	0.054265
37.27 	0.051492 	4894 	0.050654
37.31 	0.055117 	4935 	0.054523
37.35 	0.050628 	4938 	0.050153
37.39 	0.049888 	4931 	0.049413
37.43 	0.058191 	4932 	0.057241
37.47 	0.055589 	4929 	0.054401
37.51 	0.056355 	4933 	0.055405
37.55 	0.049087 	4930 	0.048018
37.59 	0.056358 	4915 	0.055762
37.63 	0.057939 	4919 	0.057700
37.67 	0.058524 	4904 	0.057090
37.71 	0.051735 	4929 	0.051259
37.75 	0.055466 	4940 	0.054517
37.79 	0.052535 	4930 	0.051110
37.83 	0.051829 	4920 	0.050857
37.87 	0.049403 	4939 	0.048810
37.91 	0.052535 	4930 	0.051546
37.95 	0.053038 	4921 	0.051491
37.99 	0.049064 	4912 	0.048706
38.03 	0.051538 	4909 	0.050444
38.07 	0.049297 	4909 	0.048343
38.11 	0.052685 	4935 	0.052091
38.15 	0.050020 	4918 	0.049544
38.19 	0.051318 	4930 	0.051081
38.23 	0.049008 	4938 	0.048770
38.27 	0.054970 	4930 	0.053999
38.31 	0.052770 	4927 	0.051819
38.35 	0.056615 	4928 	0.056021
38.39 	0.058057 	4909 	0.056983
38.43 	0.057364 	4916 	0.056410
38.47 	0.061137 	4907 	0.060043
38.51 	0.067721 	4932 	0.066652
38.55 	0.055308 	4936 	0.054596
38.59 	0.048741 	4924 	0.048146
38.63 	0.062551 	4924 	0.061123
38.67 	0.061778 	4937 	0.060286
38.71 	0.055240 	4924 	0.053931
38.75 	0.050335 	4927 	0.049622
38.79 	0.047831 	4934 	0.047238
38.83 	0.055702 	4919 	0.054512
38.87 	0.049888 	4911 	0.049172
38.91 	0.050581 	4903 	0.049984
38.95 	0.049410 	4918 	0.048557
38.99 	0.050638 	4937 	0.049926
39.03 	0.042967 	4934 	0.042017
39.07 	0.042242 	4924 	0.041766
39.11 	0.047049 	4931 	0.046337
39.15 	0.051068 	4915 	0.050711
39.19 	0.045556 	4917 	0.045080
39.23 	0.048731 	4925 	0.048136
39.27 	0.044603 	4910 	0.044006
39.31 	0.050164 	4884 	0.049804
39.35 	0.046606 	4935 	0.046131
39.39 	0.047271 	4929 	0.046677
39.43 	0.049666 	4933 	0.048458
39.47 	0.047329 	4923 	0.046734
39.51 	0.044273 	4924 	0.043916
39.55 	0.048790 	4919 	0.048314
39.59 	0.045603 	4912 	0.044768
39.63 	0.048354 	4922 	0.047878
39.67 	0.053531 	4913 	0.052578
39.71 	0.051277 	4895 	0.050200
39.75 	0.045657 	4928 	0.044944
39.79 	0.044864 	4926 	0.044507
39.83 	0.052898 	4934 	0.052305
39.87 	0.042234 	4925 	0.041639
39.91 	0.044697 	4922 	0.043983
39.95 	0.047406 	4915 	0.046214
39.99 	0.048256 	4932 	0.048019
40.03 	0.039976 	4928 	0.039857
40.07 	0.041641 	4923 	0.041146
40.11 	0.048413 	4916 	0.047579
40.15 	0.052310 	4913 	0.051456
40.19 	0.049503 	4929 	0.048909
40.23 	0.048256 	4932 	0.047781
40.27 	0.047600 	4937 	0.046888
40.31 	0.047985 	4939 	0.047748
40.35 	0.047977 	4919 	0.047263
40.39 	0.042993 	4931 	0.041805
40.43 	0.043885 	4922 	0.043528
40.47 	0.046157 	4918 	0.045681
40.51 	0.047338 	4922 	0.046624
40.55 	0.042176 	4908 	0.041818
40.59 	0.043346 	4937 	0.043346
40.63 	0.042799 	4930 	0.042443
40.67 	0.051703 	4932 	0.050753
40.71 	0.052109 	4932 	0.051158
40.75 	0.051511 	4931 	0.051036
40.79 	0.041227 	4924 	0.040731
40.83 	0.047890 	4928 	0.047533
40.87 	0.048093 	4928 	0.047260
40.91 	0.045907 	4923 	0.045550
40.95 	0.043965 	4913 	0.043369
40.99 	0.048335 	4924 	0.047502
41.03 	0.047503 	4905 	0.046667
41.07 	0.048276 	4930 	0.047306
41.11 	0.044377 	4935 	0.043902
41.15 	0.043513 	4941 	0.042328
41.19 	0.041785 	4930 	0.041191
41.23 	0.044746 	4939 	0.044509
41.27 	0.043196 	4931 	0.042721
41.31 	0.043989 	4933 	0.043277
41.35 	0.043742 	4938 	0.043505
41.39 	0.045814 	4933 	0.044983
41.43 	0.046257 	4929 	0.045306
41.47 	0.043849 	4926 	0.043611
41.51 	0.048178 	4940 	0.047348
41.55 	0.043161 	4935 	0.042568
41.59 	0.043584 	4933 	0.042872
41.63 	0.043135 	4938 	0.042542
41.67 	0.042510 	4940 	0.041917
41.71 	0.040738 	4934 	0.040144
41.75 	0.040982 	4929 	0.040388
41.79 	0.036610 	4944 	0.036610
41.83 	0.045657 	4928 	0.045063
41.87 	0.038095 	4935 	0.037620
41.91 	0.040721 	4936 	0.040247
41.95 	0.042993 	4931 	0.042399
41.99 	0.044241 	4905 	0.044002
42.03 	0.039482 	4939 	0.039126
42.07 	0.043346 	4937 	0.042872
42.11 	0.044287 	4945 	0.043576
42.15 	0.038477 	4938 	0.037765
42.19 	0.047474 	4908 	0.046638
42.23 	0.043540 	4892 	0.042942
42.27 	0.035289 	4874 	0.035049
42.31 	0.036869 	4855 	0.036628
42.35 	0.035759 	4838 	0.035274
42.39 	0.041632 	4804 	0.040900
42.43 	0.037354 	4792 	0.037232
42.47 	0.045121 	4765 	0.044752
42.51 	0.037318 	4743 	0.036701
42.55 	0.046729 	4708 	0.046231
42.59 	0.042081 	4729 	0.041338
42.63 	0.039711 	4709 	0.038820
42.67 	0.043553 	4684 	0.042156
42.71 	0.044392 	4663 	0.044015
42.75 	0.042668 	4617 	0.042161
42.79 	0.037975 	4582 	0.037463
42.83 	0.041667 	4536 	0.039945
42.87 	0.042454 	4499 	0.042193
42.91 	0.041293 	4456 	0.040504
42.95 	0.039402 	4416 	0.039004
42.99 	0.046294 	4385 	0.045760
43.03 	0.037157 	4333 	0.036751
43.07 	0.040968 	4296 	0.040287
43.11 	0.039248 	4255 	0.038835
43.15 	0.041845 	4206 	0.041126
43.19 	0.042442 	4194 	0.042023
43.23 	0.040684 	4154 	0.040402
43.27 	0.033861 	4105 	0.033861
43.31 	0.037754 	4079 	0.037036
43.35 	0.038690 	4032 	0.038400
43.39 	0.041729 	4002 	0.041144
43.43 	0.042929 	3960 	0.042486
43.47 	0.039531 	3921 	0.038909
43.51 	0.039464 	3877 	0.039161
43.55 	0.042173 	2964 	0.041777
43.59 	0.044674 	1746 	0.044674
43.63 	0.054945 	1001 	0.053775
43.67 	0.029880 	502 	0.029880
43.71 	0.029289 	239 	0.029289
43.75 	0.000000 	16 	0.000000