Folder: Bessy-II-KMC-II-insitu-sin2psi/Example_Data (part 15)

File: 25SC_s1_0006.002.dat
#F C:\frames\spec\25SC_s1_0006.002
#C title =s:6 frm:2 25SC_s1
#C wavelength =0.15406

#S 1  fr_average C:\frames\spec\25SC_s1_0006.002 C:\win32app\speccom\mask.axs chi 0 180 0 360 0.02
#C 2 theta =0.000000 to 180 deg
#C   q   =0.000000 to 81.568 nm^-1
#C  chi  =0.000000 to 360 deg
#C collumns:
#C  1 position (2theta or chi in degrees)
#C  2 average intensity (sum of all counts in the region divided with number of pixels)
#C  3 Number of pixels in region)
#C  4 error (sum of sqrt(intensity) for all pixels divided by number)
#N 4
#L TTh  Int  N_pix  Err
32.99 	0.081967 	61 	0.081967
33.03 	0.068296 	1391 	0.067454
33.07 	0.060488 	2050 	0.060202
33.11 	0.058938 	2579 	0.058256
33.15 	0.050684 	2999 	0.049512
33.19 	0.060742 	3342 	0.060041
33.23 	0.048538 	3523 	0.048206
33.27 	0.051240 	3630 	0.050271
33.31 	0.060929 	3660 	0.059489
33.35 	0.058202 	3694 	0.057092
33.39 	0.056852 	3729 	0.055281
33.43 	0.064345 	3761 	0.063254
33.47 	0.059768 	3798 	0.059460
33.51 	0.059240 	3815 	0.058626
33.55 	0.060370 	3843 	0.059760
33.59 	0.065722 	3880 	0.064514
33.63 	0.064047 	3919 	0.063300
33.67 	0.060951 	3954 	0.058828
33.71 	0.054340 	3975 	0.052842
33.75 	0.059515 	3999 	0.057904
33.79 	0.061371 	4041 	0.060646
33.83 	0.059753 	4050 	0.059030
33.87 	0.066164 	4111 	0.065024
33.91 	0.054712 	4149 	0.054006
33.95 	0.057403 	4181 	0.056422
33.99 	0.059286 	4200 	0.058449
34.03 	0.056550 	4244 	0.055308
34.07 	0.057404 	4268 	0.056169
34.11 	0.060902 	4302 	0.060221
34.15 	0.055414 	4331 	0.054581
34.19 	0.053645 	4362 	0.052549
34.23 	0.057136 	4393 	0.056470
34.27 	0.056988 	4422 	0.055090
34.31 	0.064603 	4458 	0.063793
34.35 	0.055977 	4484 	0.055454
34.39 	0.059973 	4502 	0.058802
34.43 	0.056841 	4539 	0.055937
34.47 	0.055314 	4592 	0.054293
34.51 	0.052106 	4606 	0.051343
34.55 	0.058798 	4643 	0.057789
34.59 	0.058182 	4675 	0.056929
34.63 	0.056476 	4710 	0.055481
34.67 	0.057161 	4741 	0.055534
34.71 	0.061897 	4766 	0.060545
34.75 	0.061148 	4808 	0.060904
34.79 	0.064884 	4824 	0.063670
34.83 	0.053270 	4862 	0.052668
34.87 	0.061627 	4868 	0.059802
34.91 	0.055305 	4882 	0.054345
34.95 	0.057669 	4890 	0.056211
34.99 	0.053706 	4897 	0.052630
35.03 	0.063120 	4943 	0.062053
35.07 	0.055061 	4940 	0.054586
35.11 	0.056398 	4947 	0.055687
35.15 	0.054487 	4937 	0.054012
35.19 	0.061514 	4942 	0.060328
35.23 	0.058645 	4945 	0.057342
35.27 	0.060024 	4948 	0.058840
35.31 	0.053720 	4933 	0.053007
35.35 	0.055645 	4942 	0.054579
35.39 	0.060263 	4945 	0.059078
35.43 	0.054936 	4933 	0.054105
35.47 	0.056378 	4931 	0.055309
35.51 	0.059683 	4926 	0.058851
35.55 	0.057634 	4945 	0.056686
35.59 	0.047927 	4945 	0.047572
35.63 	0.056848 	4943 	0.055900
35.67 	0.062323 	4942 	0.060901
35.71 	0.061778 	4937 	0.060355
35.75 	0.058812 	4931 	0.057861
35.79 	0.057380 	4932 	0.056173
35.83 	0.057622 	4946 	0.056793
35.87 	0.061548 	4923 	0.060358
35.91 	0.061701 	4927 	0.060869
35.95 	0.059182 	4917 	0.058329
35.99 	0.059729 	4939 	0.059136
36.03 	0.056646 	4943 	0.055935
36.07 	0.057097 	4939 	0.056148
36.11 	0.055386 	4929 	0.054555
36.15 	0.054464 	4939 	0.053990
36.19 	0.059717 	4940 	0.058768
36.23 	0.054306 	4935 	0.053238
36.27 	0.059086 	4925 	0.057897
36.31 	0.051136 	4928 	0.050542
36.35 	0.055589 	4929 	0.054639
36.39 	0.060760 	4921 	0.059808
36.43 	0.058442 	4928 	0.056896
36.47 	0.058752 	4936 	0.057684
36.51 	0.059396 	4933 	0.058446
36.55 	0.057236 	4927 	0.056027
36.59 	0.057299 	4939 	0.056193
36.63 	0.051916 	4931 	0.050828
36.67 	0.052738 	4930 	0.052025
36.71 	0.056086 	4921 	0.055372
36.75 	0.058455 	4944 	0.057981
36.79 	0.052428 	4921 	0.051714
36.83 	0.060834 	4915 	0.060000
36.87 	0.056634 	4944 	0.056160
36.91 	0.052419 	4941 	0.051352
36.95 	0.064058 	4933 	0.062733
36.99 	0.057143 	4935 	0.055837
37.03 	0.054833 	4924 	0.053882
37.07 	0.057953 	4935 	0.057004
37.11 	0.055724 	4935 	0.054894
37.15 	0.057242 	4909 	0.055552
37.19 	0.054822 	4925 	0.053633
37.23 	0.058357 	4918 	0.057285
37.27 	0.055987 	4894 	0.055029
37.31 	0.059980 	4935 	0.059268
37.35 	0.058323 	4938 	0.057493
37.39 	0.056784 	4931 	0.055714
37.43 	0.059813 	4932 	0.058863
37.47 	0.056198 	4929 	0.055247
37.51 	0.057977 	4933 	0.057027
37.55 	0.056592 	4930 	0.055998
37.59 	0.054934 	4915 	0.053623
37.63 	0.051637 	4919 	0.051279
37.67 	0.056892 	4904 	0.056415
37.71 	0.060459 	4929 	0.059745
37.75 	0.048381 	4940 	0.047531
37.79 	0.054158 	4930 	0.053089
37.83 	0.053455 	4920 	0.052364
37.87 	0.048593 	4939 	0.048118
37.91 	0.054970 	4930 	0.054257
37.95 	0.057305 	4921 	0.055996
37.99 	0.055171 	4912 	0.054455
38.03 	0.052149 	4909 	0.051910
38.07 	0.048279 	4909 	0.047443
38.11 	0.053495 	4935 	0.052665
38.15 	0.051037 	4918 	0.049727
38.19 	0.053144 	4930 	0.052530
38.23 	0.052045 	4938 	0.051195
38.27 	0.057404 	4930 	0.056334
38.31 	0.050132 	4927 	0.049656
38.35 	0.058644 	4928 	0.058169
38.39 	0.060094 	4909 	0.059020
38.43 	0.062653 	4916 	0.061561
38.47 	0.063379 	4907 	0.062304
38.51 	0.068938 	4932 	0.067869
38.55 	0.066653 	4936 	0.065348
38.59 	0.063972 	4924 	0.062426
38.63 	0.067425 	4924 	0.065997
38.67 	0.062791 	4937 	0.061486
38.71 	0.058692 	4924 	0.057364
38.75 	0.060280 	4927 	0.058972
38.79 	0.067491 	4934 	0.065947
38.83 	0.054686 	4919 	0.053714
38.87 	0.056200 	4911 	0.055843
38.91 	0.050989 	4903 	0.049794
38.95 	0.054087 	4918 	0.053015
38.99 	0.052461 	4937 	0.051037
39.03 	0.053709 	4934 	0.053234
39.07 	0.049147 	4924 	0.048790
39.11 	0.047252 	4931 	0.046539
39.15 	0.044557 	4915 	0.044319
39.19 	0.043522 	4917 	0.042808
39.23 	0.048325 	4925 	0.047849
39.27 	0.050713 	4910 	0.050355
39.31 	0.045864 	4884 	0.044885
39.35 	0.052685 	4935 	0.051617
39.39 	0.050923 	4929 	0.050567
39.43 	0.040949 	4933 	0.040217
39.47 	0.046516 	4923 	0.045564
39.51 	0.046101 	4924 	0.045387
39.55 	0.046351 	4919 	0.045875
39.59 	0.045603 	4912 	0.045006
39.63 	0.046932 	4922 	0.046337
39.67 	0.042133 	4913 	0.041656
39.71 	0.043922 	4895 	0.043683
39.75 	0.042614 	4928 	0.042019
39.79 	0.039789 	4926 	0.039313
39.83 	0.050061 	4934 	0.049467
39.87 	0.044264 	4925 	0.043550
39.91 	0.045510 	4922 	0.044915
39.95 	0.045778 	4915 	0.045540
39.99 	0.048054 	4932 	0.047460
40.03 	0.047890 	4928 	0.047295
40.07 	0.045298 	4923 	0.044941
40.11 	0.042921 	4916 	0.042325
40.15 	0.047018 	4913 	0.046422
40.19 	0.051735 	4929 	0.051259
40.23 	0.044809 	4932 	0.044216
40.27 	0.043549 	4937 	0.042599
40.31 	0.046973 	4939 	0.046143
40.35 	0.039032 	4919 	0.038437
40.39 	0.047049 	4931 	0.046693
40.43 	0.045713 	4922 	0.045356
40.47 	0.040870 	4918 	0.040751
40.51 	0.045713 	4922 	0.045356
40.55 	0.048289 	4908 	0.047334
40.59 	0.044359 	4937 	0.043884
40.63 	0.047667 	4930 	0.047311
40.67 	0.050284 	4932 	0.049452
40.71 	0.047040 	4932 	0.046565
40.75 	0.044818 	4931 	0.044462
40.79 	0.046101 	4924 	0.045724
40.83 	0.043425 	4928 	0.043069
40.87 	0.038555 	4928 	0.037961
40.91 	0.045094 	4923 	0.044500
40.95 	0.043761 	4913 	0.042927
40.99 	0.042851 	4924 	0.042613
41.03 	0.044648 	4905 	0.043932
41.07 	0.037728 	4930 	0.037372
41.11 	0.044377 	4935 	0.044140
41.15 	0.045740 	4941 	0.044198
41.19 	0.045639 	4930 	0.045401
41.23 	0.042924 	4939 	0.042331
41.27 	0.049686 	4931 	0.048973
41.31 	0.044395 	4933 	0.044157
41.35 	0.046578 	4938 	0.046103
41.39 	0.042165 	4933 	0.041928
41.43 	0.046663 	4929 	0.046068
41.47 	0.040398 	4926 	0.039922
41.51 	0.041700 	4940 	0.041108
41.55 	0.043566 	4935 	0.043210
41.59 	0.043381 	4933 	0.042669
41.63 	0.038882 	4938 	0.038882
41.67 	0.044332 	4940 	0.043858
41.71 	0.043981 	4934 	0.043624
41.75 	0.043011 	4929 	0.042535
41.79 	0.047937 	4944 	0.047344
41.83 	0.043831 	4928 	0.043237
41.87 	0.047214 	4935 	0.046620
41.91 	0.045178 	4936 	0.044328
41.95 	0.041777 	4931 	0.041420
41.99 	0.040775 	4905 	0.040416
42.03 	0.041709 	4939 	0.041234
42.07 	0.042333 	4937 	0.041859
42.11 	0.038827 	4945 	0.038235
42.15 	0.042932 	4938 	0.042458
42.19 	0.038509 	4908 	0.038150
42.23 	0.038021 	4892 	0.037063
42.27 	0.041034 	4874 	0.040674
42.31 	0.038311 	4855 	0.037828
42.35 	0.040513 	4838 	0.040149
42.39 	0.037677 	4804 	0.036945
42.43 	0.036519 	4792 	0.036152
42.47 	0.036516 	4765 	0.036516
42.51 	0.038794 	4743 	0.037929
42.55 	0.045030 	4708 	0.044781
42.59 	0.039120 	4729 	0.038501
42.63 	0.038649 	4709 	0.038401
42.67 	0.040137 	4684 	0.040012
42.71 	0.043105 	4663 	0.042854
42.75 	0.038553 	4617 	0.038046
42.79 	0.041685 	4582 	0.041557
42.83 	0.037257 	4536 	0.037257
42.87 	0.032674 	4499 	0.032544
42.91 	0.043537 	4456 	0.043142
42.95 	0.045290 	4416 	0.044361
42.99 	0.038769 	4385 	0.038635
43.03 	0.037387 	4333 	0.036982
43.07 	0.044460 	4296 	0.043915
43.11 	0.039483 	4255 	0.039345
43.15 	0.035663 	4206 	0.035385
43.19 	0.032189 	4194 	0.032049
43.23 	0.035628 	4154 	0.034782
43.27 	0.036054 	4105 	0.035625
43.31 	0.042412 	4079 	0.042125
43.35 	0.038194 	4032 	0.037904
43.39 	0.046477 	4002 	0.046038
43.43 	0.038636 	3960 	0.038341
43.47 	0.040296 	3921 	0.039698
43.51 	0.041011 	3877 	0.040256
43.55 	0.035762 	2964 	0.035170
43.59 	0.042955 	1746 	0.042620
43.63 	0.040959 	1001 	0.040374
43.67 	0.039841 	502 	0.039841
43.71 	0.029289 	239 	0.029289
43.75 	0.000000 	16 	0.000000

File: 25SC_s1_0006.003.dat
#F C:\frames\spec\25SC_s1_0006.003
#C title =s:6 frm:3 25SC_s1
#C wavelength =0.15406

#S 1  fr_average C:\frames\spec\25SC_s1_0006.003 C:\win32app\speccom\mask.axs chi 0 180 0 360 0.02
#C 2 theta =0.000000 to 180 deg
#C   q   =0.000000 to 81.568 nm^-1
#C  chi  =0.000000 to 360 deg
#C collumns:
#C  1 position (2theta or chi in degrees)
#C  2 average intensity (sum of all counts in the region divided with number of pixels)
#C  3 Number of pixels in region)
#C  4 error (sum of sqrt(intensity) for all pixels divided by number)
#N 4
#L TTh  Int  N_pix  Err
32.99 	0.016393 	61 	0.016393
33.03 	0.057513 	1391 	0.056670
33.07 	0.066341 	2050 	0.066056
33.11 	0.061264 	2579 	0.060356
33.15 	0.055685 	2999 	0.054904
33.19 	0.059246 	3342 	0.057668
33.23 	0.057621 	3523 	0.056790
33.27 	0.055372 	3630 	0.054538
33.31 	0.063115 	3660 	0.061834
33.35 	0.060910 	3694 	0.059482
33.39 	0.066774 	3729 	0.065674
33.43 	0.064345 	3761 	0.063099
33.47 	0.058715 	3798 	0.057635
33.51 	0.058453 	3815 	0.057686
33.55 	0.066875 	3843 	0.065351
33.59 	0.061856 	3880 	0.061101
33.63 	0.060475 	3919 	0.059279
33.67 	0.065250 	3954 	0.064065
33.71 	0.061635 	3975 	0.060604
33.75 	0.061015 	3999 	0.060405
33.79 	0.060134 	4041 	0.058974
33.83 	0.055556 	4050 	0.055122
33.87 	0.062272 	4111 	0.060847
33.91 	0.061702 	4149 	0.060290
33.95 	0.064339 	4181 	0.063218
33.99 	0.064048 	4200 	0.063490
34.03 	0.061263 	4244 	0.060297
34.07 	0.059513 	4268 	0.058415
34.11 	0.064854 	4302 	0.063492
34.15 	0.060032 	4331 	0.058950
34.19 	0.054333 	4362 	0.053102
34.23 	0.060779 	4393 	0.059978
34.27 	0.055631 	4422 	0.054704
34.31 	0.059668 	4458 	0.058880
34.35 	0.060214 	4484 	0.059692
34.39 	0.056419 	4502 	0.056289
34.43 	0.060145 	4539 	0.059371
34.47 	0.055314 	4592 	0.054655
34.51 	0.055363 	4606 	0.054472
34.55 	0.063537 	4643 	0.062653
34.59 	0.059251 	4675 	0.057873
34.63 	0.061996 	4710 	0.061105
34.67 	0.062434 	4741 	0.061940
34.71 	0.056441 	4766 	0.055438
34.75 	0.057612 	4808 	0.056759
34.79 	0.059080 	4824 	0.058472
34.83 	0.058618 	4862 	0.057293
34.87 	0.060394 	4868 	0.059532
34.91 	0.068824 	4882 	0.067144
34.95 	0.059714 	4890 	0.058636
34.99 	0.055340 	4897 	0.053905
35.03 	0.054825 	4943 	0.054232
35.07 	0.056883 	4940 	0.056053
35.11 	0.058217 	4947 	0.056915
35.15 	0.063804 	4937 	0.062717
35.19 	0.056455 	4942 	0.055625
35.23 	0.065116 	4945 	0.062984
35.27 	0.057801 	4948 	0.056972
35.31 	0.062234 	4933 	0.061284
35.35 	0.060704 	4942 	0.060112
35.39 	0.057634 	4945 	0.056449
35.43 	0.059801 	4933 	0.058970
35.47 	0.057595 	4931 	0.056407
35.51 	0.066179 	4926 	0.065704
35.55 	0.055005 	4945 	0.054038
35.59 	0.066734 	4945 	0.065549
35.63 	0.061299 	4943 	0.059995
35.67 	0.061311 	4942 	0.060600
35.71 	0.065829 	4937 	0.065355
35.75 	0.062868 	4931 	0.061680
35.79 	0.061841 	4932 	0.061010
35.83 	0.058835 	4946 	0.057888
35.87 	0.051595 	4923 	0.050881
35.91 	0.058859 	4927 	0.057908
35.95 	0.052674 	4917 	0.052198
35.99 	0.059324 	4939 	0.058256
36.03 	0.067166 	4943 	0.065981
36.07 	0.062968 	4939 	0.062019
36.11 	0.058835 	4929 	0.058122
36.15 	0.059526 	4939 	0.058696
36.19 	0.063968 	4940 	0.062545
36.23 	0.062411 	4935 	0.061343
36.27 	0.059492 	4925 	0.058303
36.31 	0.062500 	4928 	0.061430
36.35 	0.060864 	4929 	0.059557
36.39 	0.056289 	4921 	0.054861
36.43 	0.060471 	4928 	0.059995
36.47 	0.064222 	4936 	0.063391
36.51 	0.059801 	4933 	0.058733
36.55 	0.058656 	4927 	0.058181
36.59 	0.061348 	4939 	0.059451
36.63 	0.056784 	4931 	0.056051
36.67 	0.059229 	4930 	0.058140
36.71 	0.057305 	4921 	0.056829
36.75 	0.059668 	4944 	0.058957
36.79 	0.061166 	4921 	0.060452
36.83 	0.059817 	4915 	0.057910
36.87 	0.056230 	4944 	0.055144
36.91 	0.056871 	4941 	0.056160
36.95 	0.059801 	4933 	0.058376
36.99 	0.066869 	4935 	0.065445
37.03 	0.060926 	4924 	0.059974
37.07 	0.062006 	4935 	0.060463
37.11 	0.060182 	4935 	0.058995
37.15 	0.056020 	4909 	0.054946
37.19 	0.064975 	4925 	0.063379
37.23 	0.050427 	4918 	0.049712
37.27 	0.055374 	4894 	0.054656
37.31 	0.052482 	4935 	0.052007
37.35 	0.054678 	4938 	0.053966
37.39 	0.053944 	4931 	0.053113
37.43 	0.050081 	4932 	0.049725
37.47 	0.052343 	4929 	0.051630
37.51 	0.051895 	4933 	0.051658
37.55 	0.054767 	4930 	0.054054
37.59 	0.050865 	4915 	0.050388
37.63 	0.050823 	4919 	0.049613
37.67 	0.056077 	4904 	0.054624
37.71 	0.058024 	4929 	0.057073
37.75 	0.053846 	4940 	0.053135
37.79 	0.054158 	4930 	0.053208
37.83 	0.053455 	4920 	0.052622
37.87 	0.051630 	4939 	0.050681
37.91 	0.055984 	4930 	0.055152
37.95 	0.058728 	4921 	0.058371
37.99 	0.053542 	4912 	0.052946
38.03 	0.048482 	4909 	0.047886
38.07 	0.045630 	4909 	0.045153
38.11 	0.054914 	4935 	0.054083
38.15 	0.060187 	4918 	0.059234
38.19 	0.055578 	4930 	0.054489
38.23 	0.057716 	4938 	0.056529
38.27 	0.059432 	4930 	0.058700
38.31 	0.050335 	4927 	0.049859
38.35 	0.064326 	4928 	0.063613
38.39 	0.058668 	4909 	0.056997
38.43 	0.052889 	4916 	0.051816
38.47 	0.059099 	4907 	0.058005
38.51 	0.065896 	4932 	0.064827
38.55 	0.062196 	4936 	0.060891
38.59 	0.058692 	4924 	0.057978
38.63 	0.058895 	4924 	0.057805
38.67 	0.057727 	4937 	0.056778
38.71 	0.053412 	4924 	0.052936
38.75 	0.055003 	4927 	0.054171
38.79 	0.054317 	4934 	0.053605
38.83 	0.052653 	4919 	0.051700
38.87 	0.047445 	4911 	0.046610
38.91 	0.051193 	4903 	0.050715
38.95 	0.048597 	4918 	0.048121
38.99 	0.051043 	4937 	0.050213
39.03 	0.054317 	4934 	0.053130
39.07 	0.051990 	4924 	0.051276
39.11 	0.040154 	4931 	0.039204
39.15 	0.046999 	4915 	0.045926
39.19 	0.053691 	4917 	0.053215
39.23 	0.052386 	4925 	0.051672
39.27 	0.047047 	4910 	0.045973
39.31 	0.051188 	4884 	0.050228
39.35 	0.050861 	4935 	0.050268
39.39 	0.044025 	4929 	0.043550
39.43 	0.045003 	4933 	0.044409
39.47 	0.046719 	4923 	0.045490
39.51 	0.049959 	4924 	0.049484
39.55 	0.045944 	4919 	0.045468
39.59 	0.048453 	4912 	0.047737
39.63 	0.050589 	4922 	0.049518
39.67 	0.051903 	4913 	0.050810
39.71 	0.049234 	4895 	0.048157
39.75 	0.045049 	4928 	0.044335
39.79 	0.055014 	4926 	0.053825
39.83 	0.049655 	4934 	0.049062
39.87 	0.048934 	4925 	0.048458
39.91 	0.049370 	4922 	0.048894
39.95 	0.046389 	4915 	0.045912
39.99 	0.049473 	4932 	0.048879
40.03 	0.048295 	4928 	0.048058
40.07 	0.047329 	4923 	0.046496
40.11 	0.047803 	4916 	0.047326
40.15 	0.046815 	4913 	0.046338
40.19 	0.045040 	4929 	0.044564
40.23 	0.044809 	4932 	0.043978
40.27 	0.042739 	4937 	0.042383
40.31 	0.045961 	4939 	0.045130
40.35 	0.044725 	4919 	0.044129
40.39 	0.039951 	4931 	0.039595
40.43 	0.050792 	4922 	0.049959
40.47 	0.051850 	4918 	0.050897
40.51 	0.049370 	4922 	0.048656
40.55 	0.047474 	4908 	0.047235
40.59 	0.048410 	4937 	0.047817
40.63 	0.047870 	4930 	0.047276
40.67 	0.048662 	4932 	0.048305
40.71 	0.044404 	4932 	0.043929
40.75 	0.043602 	4931 	0.043008
40.79 	0.047319 	4924 	0.047081
40.83 	0.047281 	4928 	0.046568
40.87 	0.046266 	4928 	0.045672
40.91 	0.043876 	4923 	0.042924
40.95 	0.043558 	4913 	0.042227
40.99 	0.046913 	4924 	0.046318
41.03 	0.050153 	4905 	0.049078
41.07 	0.044016 	4930 	0.043779
41.11 	0.047416 	4935 	0.046586
41.15 	0.051002 	4941 	0.050172
41.19 	0.049899 	4930 	0.049047
41.23 	0.048188 	4939 	0.047951
41.27 	0.042182 	4931 	0.042063
41.31 	0.048044 	4933 	0.047450
41.35 	0.043135 	4938 	0.042779
41.39 	0.045003 	4933 	0.044133
41.43 	0.039968 	4929 	0.039611
41.47 	0.043240 	4926 	0.042883
41.51 	0.048785 	4940 	0.047936
41.55 	0.048430 	4935 	0.047460
41.59 	0.044192 	4933 	0.043598
41.63 	0.043540 	4938 	0.043184
41.67 	0.041093 	4940 	0.040125
41.71 	0.043981 	4934 	0.043506
41.75 	0.042199 	4929 	0.041605
41.79 	0.045105 	4944 	0.044631
41.83 	0.042411 	4928 	0.041579
41.87 	0.048430 	4935 	0.047717
41.91 	0.043760 	4936 	0.043285
41.95 	0.042588 	4931 	0.041737
41.99 	0.047299 	4905 	0.046582
42.03 	0.043734 	4939 	0.043141
42.07 	0.049018 	4937 	0.048543
42.11 	0.044692 	4945 	0.044099
42.15 	0.040300 	4938 	0.039707
42.19 	0.044010 	4908 	0.043532
42.23 	0.045789 	4892 	0.045310
42.27 	0.042470 	4874 	0.041749
42.31 	0.039753 	4855 	0.039270
42.35 	0.044440 	4838 	0.043834
42.39 	0.041840 	4804 	0.041474
42.43 	0.040693 	4792 	0.040448
42.47 	0.040923 	4765 	0.040678
42.51 	0.049968 	4743 	0.048960
42.55 	0.042481 	4708 	0.041983
42.59 	0.042504 	4729 	0.042256
42.63 	0.047144 	4709 	0.046895
42.67 	0.047395 	4684 	0.047020
42.71 	0.046537 	4663 	0.046034
42.75 	0.043535 	4617 	0.042900
42.79 	0.039284 	4582 	0.039156
42.83 	0.041005 	4536 	0.040618
42.87 	0.046677 	4499 	0.045896
42.91 	0.042415 	4456 	0.041889
42.95 	0.035100 	4416 	0.034547
42.99 	0.045610 	4385 	0.044809
43.03 	0.041311 	4333 	0.040748
43.07 	0.048184 	4296 	0.047912
43.11 	0.046298 	4255 	0.045312
43.15 	0.042558 	4206 	0.042001
43.19 	0.042203 	4194 	0.041365
43.23 	0.044295 	4154 	0.043590
43.27 	0.039951 	4105 	0.039380
43.31 	0.035058 	4079 	0.035058
43.35 	0.042411 	4032 	0.041830
43.39 	0.042979 	4002 	0.042393
43.43 	0.050253 	3960 	0.049365
43.47 	0.042081 	3921 	0.041932
43.51 	0.043590 	3877 	0.042684
43.55 	0.042848 	2964 	0.042255
43.59 	0.037228 	1746 	0.036892
43.63 	0.031968 	1001 	0.031968
43.67 	0.031873 	502 	0.031873
43.71 	0.041841 	239 	0.041841
43.75 	0.000000 	16 	0.000000