Folder: Bessy-II-KMC-II-insitu-sin2psi/Example_Data (part 16)

File: 25SC_s1_0006.004.dat
#F C:\frames\spec\25SC_s1_0006.004
#C title =s:6 frm:4 25SC_s1
#C wavelength =0.15406

#S 1  fr_average C:\frames\spec\25SC_s1_0006.004 C:\win32app\speccom\mask.axs chi 0 180 0 360 0.02
#C 2 theta =0.000000 to 180 deg
#C   q   =0.000000 to 81.568 nm^-1
#C  chi  =0.000000 to 360 deg
#C collumns:
#C  1 position (2theta or chi in degrees)
#C  2 average intensity (sum of all counts in the region divided with number of pixels)
#C  3 Number of pixels in region)
#C  4 error (sum of sqrt(intensity) for all pixels divided by number)
#N 4
#L TTh  Int  N_pix  Err
32.99 	0.049180 	61 	0.049180
33.03 	0.062545 	1391 	0.060018
33.07 	0.061463 	2050 	0.060559
33.11 	0.046917 	2579 	0.045782
33.15 	0.066689 	2999 	0.066298
33.19 	0.058947 	3342 	0.058421
33.23 	0.059041 	3523 	0.058182
33.27 	0.053719 	3630 	0.052240
33.31 	0.061202 	3660 	0.060082
33.35 	0.061992 	3694 	0.061358
33.39 	0.060338 	3729 	0.059395
33.43 	0.057166 	3761 	0.056075
33.47 	0.052133 	3798 	0.051670
33.51 	0.050590 	3815 	0.049668
33.55 	0.053344 	3843 	0.052277
33.59 	0.068557 	3880 	0.066745
33.63 	0.059454 	3919 	0.059006
33.67 	0.055893 	3954 	0.055152
33.71 	0.067925 	3975 	0.066746
33.75 	0.064266 	3999 	0.062948
33.79 	0.057659 	4041 	0.056644
33.83 	0.058025 	4050 	0.056868
33.87 	0.060812 	4111 	0.059245
33.91 	0.058809 	4149 	0.058103
33.95 	0.054532 	4181 	0.053972
33.99 	0.056190 	4200 	0.055912
34.03 	0.056079 	4244 	0.055527
34.07 	0.065136 	4268 	0.064175
34.11 	0.058810 	4302 	0.058401
34.15 	0.054722 	4331 	0.054181
34.19 	0.054333 	4362 	0.053124
34.23 	0.057819 	4393 	0.056886
34.27 	0.059701 	4422 	0.059017
34.31 	0.063033 	4458 	0.062376
34.35 	0.058430 	4484 	0.057646
34.39 	0.062861 	4502 	0.061560
34.43 	0.060586 	4539 	0.059941
34.47 	0.060976 	4592 	0.059700
34.51 	0.067521 	4606 	0.066503
34.55 	0.062029 	4643 	0.060084
34.59 	0.062888 	4675 	0.061885
34.63 	0.064331 	4710 	0.062839
34.67 	0.056317 	4741 	0.055452
34.71 	0.056861 	4766 	0.056369
34.75 	0.060940 	4808 	0.059234
34.79 	0.058872 	4824 	0.058265
34.83 	0.071164 	4862 	0.069236
34.87 	0.057313 	4868 	0.056451
34.91 	0.056329 	4882 	0.055489
34.95 	0.058282 	4890 	0.057084
34.99 	0.057382 	4897 	0.056047
35.03 	0.069796 	4943 	0.068255
35.07 	0.057692 	4940 	0.056981
35.11 	0.056600 	4947 	0.056008
35.15 	0.056917 	4937 	0.055948
35.19 	0.061311 	4942 	0.060481
35.23 	0.061881 	4945 	0.060696
35.27 	0.061439 	4948 	0.060729
35.31 	0.060409 	4933 	0.059341
35.35 	0.062323 	4942 	0.061612
35.39 	0.061274 	4945 	0.060326
35.43 	0.057977 	4933 	0.056908
35.47 	0.064084 	4931 	0.063015
35.51 	0.059074 	4926 	0.057647
35.55 	0.062892 	4945 	0.061352
35.59 	0.058241 	4945 	0.056938
35.63 	0.060085 	4943 	0.059137
35.67 	0.062728 	4942 	0.061286
35.71 	0.055297 	4937 	0.054585
35.75 	0.059623 	4931 	0.058415
35.79 	0.057380 	4932 	0.056549
35.83 	0.061868 	4946 	0.060921
35.87 	0.064392 	4923 	0.063083
35.91 	0.065760 	4927 	0.064928
35.95 	0.057759 	4917 	0.057163
35.99 	0.058514 	4939 	0.057328
36.03 	0.049970 	4943 	0.049733
36.07 	0.062766 	4939 	0.061323
36.11 	0.063096 	4929 	0.061294
36.15 	0.055274 	4939 	0.054207
36.19 	0.062955 	4940 	0.061394
36.23 	0.063830 	4935 	0.062761
36.27 	0.061117 	4925 	0.060403
36.31 	0.058036 	4928 	0.057085
36.35 	0.052343 	4929 	0.050561
36.39 	0.056086 	4921 	0.055253
36.43 	0.060065 	4928 	0.058976
36.47 	0.058955 	4936 	0.057412
36.51 	0.065072 	4933 	0.063409
36.55 	0.055815 	4927 	0.054369
36.59 	0.066410 	4939 	0.064256
36.63 	0.061042 	4931 	0.060448
36.67 	0.057606 	4930 	0.056894
36.71 	0.055883 	4921 	0.055288
36.75 	0.057039 	4944 	0.055104
36.79 	0.059134 	4921 	0.057686
36.83 	0.064090 	4915 	0.062898
36.87 	0.053196 	4944 	0.051774
36.91 	0.060716 	4941 	0.059412
36.95 	0.063856 	4933 	0.062668
36.99 	0.061601 	4935 	0.059801
37.03 	0.058895 	4924 	0.057825
37.07 	0.066667 	4935 	0.064767
37.11 	0.057953 	4935 	0.057360
37.15 	0.058260 	4909 	0.056451
37.19 	0.052995 	4925 	0.052281
37.23 	0.058560 	4918 	0.058322
37.27 	0.053331 	4894 	0.052493
37.31 	0.059777 	4935 	0.058353
37.35 	0.057311 	4938 	0.056599
37.39 	0.056581 	4931 	0.055512
37.43 	0.056975 	4932 	0.055787
37.47 	0.055792 	4929 	0.054941
37.51 	0.055950 	4933 	0.054505
37.55 	0.050507 	4930 	0.049913
37.59 	0.048627 	4915 	0.047912
37.63 	0.051433 	4919 	0.050600
37.67 	0.061582 	4904 	0.060866
37.71 	0.057821 	4929 	0.056633
37.75 	0.055466 	4940 	0.054873
37.79 	0.056389 	4930 	0.055795
37.83 	0.061382 	4920 	0.060311
37.87 	0.057299 	4939 	0.056706
37.91 	0.058824 	4930 	0.057992
37.95 	0.058728 	4921 	0.057518
37.99 	0.055171 	4912 	0.054336
38.03 	0.057242 	4909 	0.056406
38.07 	0.058871 	4909 	0.058155
38.11 	0.059372 	4935 	0.058541
38.15 	0.051850 	4918 	0.051017
38.19 	0.058215 	4930 	0.056789
38.23 	0.059741 	4938 	0.058317
38.27 	0.066937 	4930 	0.065967
38.31 	0.063933 	4927 	0.063220
38.35 	0.063312 	4928 	0.061410
38.39 	0.069261 	4909 	0.068187
38.43 	0.075468 	4916 	0.073780
38.47 	0.069289 	4907 	0.068334
38.51 	0.074818 	4932 	0.072798
38.55 	0.061183 	4936 	0.059759
38.59 	0.058489 	4924 	0.057418
38.63 	0.067831 	4924 	0.066146
38.67 	0.063601 	4937 	0.061940
38.71 	0.060317 	4924 	0.058870
38.75 	0.050538 	4927 	0.049567
38.79 	0.061208 	4934 	0.060614
38.83 	0.053669 	4919 	0.052479
38.87 	0.058847 	4911 	0.057535
38.91 	0.050581 	4903 	0.049864
38.95 	0.058560 	4918 	0.057846
38.99 	0.051651 	4937 	0.050939
39.03 	0.056344 	4934 	0.055394
39.07 	0.048741 	4924 	0.048146
39.11 	0.057798 	4931 	0.057322
39.15 	0.062055 	4915 	0.061101
39.19 	0.051454 	4917 	0.050739
39.23 	0.050558 	4925 	0.050202
39.27 	0.053157 	4910 	0.052441
39.31 	0.051802 	4884 	0.050942
39.35 	0.049848 	4935 	0.049017
39.39 	0.055995 	4929 	0.054926
39.43 	0.052098 	4933 	0.051029
39.47 	0.050173 	4923 	0.049221
39.51 	0.047929 	4924 	0.047096
39.55 	0.057735 	4919 	0.057140
39.59 	0.052321 	4912 	0.051725
39.63 	0.055668 	4922 	0.055430
39.67 	0.061266 	4913 	0.059696
39.71 	0.052298 	4895 	0.051341
39.75 	0.062703 	4928 	0.061276
39.79 	0.053796 	4926 	0.052964
39.83 	0.063843 	4934 	0.062537
39.87 	0.058477 	4925 	0.057288
39.91 	0.053434 	4922 	0.052719
39.95 	0.059613 	4915 	0.058541
39.99 	0.047242 	4932 	0.046411
40.03 	0.060065 	4928 	0.058757
40.07 	0.056470 	4923 	0.055756
40.11 	0.056550 	4916 	0.055716
40.15 	0.050071 	4913 	0.048959
40.19 	0.053966 	4929 	0.053729
40.23 	0.054136 	4932 	0.053542
40.27 	0.054081 	4937 	0.053132
40.31 	0.049605 	4939 	0.048894
40.35 	0.051027 	4919 	0.050312
40.39 	0.051714 	4931 	0.050882
40.43 	0.056684 	4922 	0.056208
40.47 	0.055714 	4918 	0.054761
40.51 	0.055872 	4922 	0.054562
40.55 	0.056642 	4908 	0.056165
40.59 	0.053271 	4937 	0.052915
40.63 	0.055578 	4930 	0.054390
40.67 	0.057380 	4932 	0.056787
40.71 	0.051500 	4932 	0.050907
40.75 	0.058000 	4931 	0.056575
40.79 	0.055443 	4924 	0.054610
40.83 	0.051948 	4928 	0.050878
40.87 	0.056209 	4928 	0.055377
40.91 	0.048345 	4923 	0.047750
40.95 	0.050275 	4913 	0.050036
40.99 	0.053818 	4924 	0.052509
41.03 	0.049541 	4905 	0.048705
41.07 	0.055375 	4930 	0.055019
41.11 	0.053293 	4935 	0.052699
41.15 	0.053835 	4941 	0.053242
41.19 	0.054970 	4930 	0.054375
41.23 	0.054464 	4939 	0.053634
41.27 	0.056581 	4931 	0.055155
41.31 	0.056963 	4933 	0.055538
41.35 	0.049008 	4938 	0.048296
41.39 	0.055544 	4933 	0.054476
41.43 	0.049909 	4929 	0.048938
41.47 	0.051563 	4926 	0.050374
41.51 	0.052834 	4940 	0.052004
41.55 	0.045795 	4935 	0.045321
41.59 	0.051895 	4933 	0.051539
41.63 	0.048198 	4938 	0.047585
41.67 	0.049798 	4940 	0.049205
41.71 	0.054114 	4934 	0.053026
41.75 	0.051532 	4929 	0.050938
41.79 	0.049757 	4944 	0.048928
41.83 	0.051136 	4928 	0.050067
41.87 	0.050861 	4935 	0.049674
41.91 	0.051661 	4936 	0.050831
41.95 	0.054553 	4931 	0.053583
41.99 	0.048114 	4905 	0.047636
42.03 	0.045961 	4939 	0.045605
42.07 	0.049018 	4937 	0.048306
42.11 	0.044489 	4945 	0.044252
42.15 	0.047590 	4938 	0.046977
42.19 	0.041972 	4908 	0.041376
42.23 	0.048651 	4892 	0.048531
42.27 	0.051087 	4874 	0.050727
42.31 	0.053759 	4855 	0.052794
42.35 	0.048367 	4838 	0.048004
42.39 	0.051415 	4804 	0.050562
42.43 	0.050501 	4792 	0.049747
42.47 	0.050997 	4765 	0.050382
42.51 	0.049547 	4743 	0.048929
42.55 	0.052464 	4708 	0.051821
42.59 	0.050962 	4729 	0.049971
42.63 	0.050966 	4709 	0.050199
42.67 	0.046968 	4684 	0.046343
42.71 	0.046751 	4663 	0.046249
42.75 	0.047000 	4617 	0.046493
42.79 	0.051069 	4582 	0.049898
42.83 	0.044533 	4536 	0.044145
42.87 	0.047788 	4499 	0.047268
42.91 	0.051391 	4456 	0.050734
42.95 	0.049819 	4416 	0.049023
42.99 	0.047434 	4385 	0.046633
43.03 	0.044542 	4333 	0.043866
43.07 	0.050047 	4296 	0.049342
43.11 	0.041363 	4255 	0.041363
43.15 	0.046362 	4206 	0.045527
43.19 	0.046018 	4194 	0.045459
43.23 	0.053924 	4154 	0.053078
43.27 	0.048477 	4105 	0.048192
43.31 	0.045354 	4079 	0.044923
43.35 	0.049851 	4032 	0.048834
43.39 	0.046227 	4002 	0.045641
43.43 	0.043939 	3960 	0.043348
43.47 	0.044887 	3921 	0.044588
43.51 	0.051844 	3877 	0.051089
43.55 	0.045209 	2964 	0.044814
43.59 	0.049255 	1746 	0.048584
43.63 	0.049950 	1001 	0.049950
43.67 	0.037849 	502 	0.036682
43.71 	0.046025 	239 	0.046025
43.75 	0.000000 	16 	0.000000

File: 25SC_s1_0007.000.dat
#F C:\frames\spec\25SC_s1_0007.000
#C title =s:7 frm:0 25SC_s1
#C wavelength =0.15406

#S 1  fr_average C:\frames\spec\25SC_s1_0007.000 C:\win32app\speccom\mask.axs chi 0 180 0 360 0.02
#C 2 theta =0.000000 to 180 deg
#C   q   =0.000000 to 81.568 nm^-1
#C  chi  =0.000000 to 360 deg
#C collumns:
#C  1 position (2theta or chi in degrees)
#C  2 average intensity (sum of all counts in the region divided with number of pixels)
#C  3 Number of pixels in region)
#C  4 error (sum of sqrt(intensity) for all pixels divided by number)
#N 4
#L TTh  Int  N_pix  Err
32.99 	0.081967 	61 	0.081967
33.03 	0.061107 	1391 	0.059844
33.07 	0.052195 	2050 	0.051052
33.11 	0.068631 	2579 	0.067496
33.15 	0.066689 	2999 	0.065712
33.19 	0.061640 	3342 	0.060588
33.23 	0.058757 	3523 	0.057759
33.27 	0.061708 	3630 	0.060578
33.31 	0.050546 	3660 	0.049426
33.35 	0.055495 	3694 	0.054544
33.39 	0.064360 	3729 	0.063732
33.43 	0.059293 	3761 	0.057398
33.47 	0.057662 	3798 	0.057199
33.51 	0.054784 	3815 	0.053402
33.55 	0.060630 	3843 	0.060172
33.59 	0.052577 	3880 	0.051520
33.63 	0.060475 	3919 	0.058382
33.67 	0.061710 	3954 	0.060821
33.71 	0.063396 	3975 	0.062070
33.75 	0.064266 	3999 	0.063680
33.79 	0.061123 	4041 	0.060399
33.83 	0.055309 	4050 	0.054585
33.87 	0.068110 	4111 	0.067255
33.91 	0.063871 	4149 	0.063306
33.95 	0.060033 	4181 	0.059193
33.99 	0.058571 	4200 	0.057177
34.03 	0.053959 	4244 	0.053406
34.07 	0.058575 	4268 	0.057477
34.11 	0.056020 	4302 	0.054931
34.15 	0.053567 	4331 	0.053162
34.19 	0.052270 	4362 	0.051732
34.23 	0.051218 	4393 	0.050818
34.27 	0.060380 	4422 	0.059696
34.31 	0.061238 	4458 	0.060056
34.35 	0.060883 	4484 	0.059555
34.39 	0.058418 	4502 	0.057096
34.43 	0.055299 	4539 	0.054137
34.47 	0.053789 	4592 	0.052896
34.51 	0.054494 	4606 	0.054240
34.55 	0.058367 	4643 	0.056959
34.59 	0.059679 	4675 	0.058677
34.63 	0.057962 	4710 	0.056718
34.67 	0.061169 	4741 	0.059542
34.71 	0.054973 	4766 	0.054235
34.75 	0.064060 	4808 	0.063451
34.79 	0.054104 	4824 	0.053254
34.83 	0.054916 	4862 	0.054193
34.87 	0.060600 	4868 	0.059858
34.91 	0.057149 	4882 	0.056549
34.95 	0.057873 	4890 	0.056795
34.99 	0.063508 	4897 	0.062551
35.03 	0.056848 	4943 	0.055900
35.07 	0.062955 	4940 	0.062007
35.11 	0.057409 	4947 	0.056935
35.15 	0.060563 	4937 	0.059851
35.19 	0.058883 	4942 	0.057441
35.23 	0.055005 	4945 	0.053820
35.27 	0.062045 	4948 	0.061217
35.31 	0.065275 	4933 	0.064206
35.35 	0.061514 	4942 	0.060328
35.39 	0.059050 	4945 	0.058576
35.43 	0.061018 	4933 	0.060305
35.47 	0.053944 	4931 	0.053232
35.51 	0.062728 	4926 	0.062015
35.55 	0.062285 	4945 	0.061337
35.59 	0.055005 	4945 	0.054413
35.63 	0.054218 	4943 	0.053033
35.67 	0.061109 	4942 	0.060398
35.71 	0.056917 	4937 	0.056087
35.75 	0.060434 	4931 	0.059602
35.79 	0.060219 	4932 	0.058912
35.83 	0.055398 	4946 	0.054214
35.87 	0.057282 	4923 	0.056330
35.91 	0.059671 	4927 	0.058601
35.95 	0.061420 	4917 	0.060109
35.99 	0.059931 	4939 	0.059338
36.03 	0.056646 	4943 	0.055342
36.07 	0.059324 	4939 	0.058494
36.11 	0.059444 	4929 	0.058731
36.15 	0.064183 	4939 	0.063077
36.19 	0.062955 	4940 	0.062244
36.23 	0.058359 	4935 	0.057152
36.27 	0.059695 	4925 	0.058268
36.31 	0.064529 	4928 	0.063578
36.35 	0.059850 	4929 	0.059256
36.39 	0.064418 	4921 	0.063327
36.43 	0.055195 	4928 	0.054600
36.47 	0.059968 	4936 	0.059018
36.51 	0.062437 	4933 	0.061249
36.55 	0.062513 	4927 	0.061086
36.59 	0.056692 	4939 	0.055387
36.63 	0.065301 	4931 	0.064113
36.67 	0.063083 	4930 	0.061638
36.71 	0.066450 	4921 	0.065617
36.75 	0.062702 	4944 	0.061754
36.79 	0.066450 	4921 	0.065121
36.83 	0.066938 	4915 	0.065746
36.87 	0.065332 	4944 	0.064009
36.91 	0.061728 	4941 	0.060306
36.95 	0.057369 	4933 	0.056043
36.99 	0.061398 	4935 	0.060330
37.03 	0.059708 	4924 	0.057904
37.07 	0.060588 	4935 	0.059401
37.11 	0.057143 	4935 	0.056787
37.15 	0.060501 	4909 	0.058950
37.19 	0.061320 	4925 	0.060487
37.23 	0.065270 	4918 	0.064675
37.27 	0.058848 	4894 	0.057631
37.31 	0.054509 	4935 	0.053796
37.35 	0.062576 	4938 	0.061627
37.39 	0.053133 	4931 	0.052658
37.43 	0.058800 	4932 	0.058562
37.47 	0.055995 	4929 	0.055163
37.51 	0.062842 	4933 	0.061536
37.55 	0.064097 	4930 	0.062790
37.59 	0.056562 	4915 	0.055727
37.63 	0.055092 	4919 	0.054378
37.67 	0.058116 	4904 	0.057160
37.71 	0.059647 	4929 	0.058696
37.75 	0.053036 	4940 	0.052444
37.79 	0.056389 	4930 	0.055677
37.83 	0.054878 	4920 	0.054263
37.87 	0.057704 	4939 	0.057111
37.91 	0.061055 	4930 	0.060104
37.95 	0.053648 	4921 	0.052576
37.99 	0.051710 	4912 	0.051472
38.03 	0.053371 	4909 	0.052417
38.07 	0.053371 	4909 	0.052894
38.11 	0.058967 	4935 	0.057879
38.15 	0.058357 	4918 	0.057047
38.19 	0.060649 	4930 	0.059204
38.23 	0.056703 	4938 	0.055873
38.27 	0.060041 	4930 	0.059209
38.31 	0.059468 	4927 	0.058993
38.35 	0.057833 	4928 	0.056387
38.39 	0.059686 	4909 	0.058970
38.43 	0.073637 	4916 	0.072326
38.47 	0.075606 	4907 	0.073896
38.51 	0.070762 	4932 	0.069575
38.55 	0.079417 	4936 	0.077755
38.59 	0.086515 	4924 	0.084493
38.63 	0.084281 	4924 	0.082497
38.67 	0.085274 	4937 	0.083851
38.71 	0.080829 	4924 	0.078568
38.75 	0.079765 	4927 	0.078100
38.79 	0.075395 	4934 	0.073971
38.83 	0.070136 	4919 	0.067953
38.87 	0.067196 	4911 	0.065884
38.91 	0.062411 	4903 	0.061813
38.95 	0.057747 	4918 	0.056080
38.99 	0.055094 	4937 	0.054026
39.03 	0.052290 	4934 	0.051578
39.07 	0.050366 	4924 	0.049870
39.11 	0.047252 	4931 	0.047014
39.15 	0.051272 	4915 	0.050318
39.19 	0.049217 	4917 	0.048383
39.23 	0.048325 	4925 	0.046898
39.27 	0.049898 	4910 	0.049421
39.31 	0.048116 	4884 	0.047517
39.35 	0.048835 	4935 	0.047410
39.39 	0.047880 	4929 	0.047523
39.43 	0.048652 	4933 	0.047939
39.47 	0.048141 	4923 	0.047665
39.51 	0.046710 	4924 	0.045739
39.55 	0.047571 	4919 	0.046737
39.59 	0.041938 	4912 	0.041700
39.63 	0.046119 	4922 	0.045267
39.67 	0.051089 	4913 	0.050493
39.71 	0.045965 	4895 	0.045128
39.75 	0.046469 	4928 	0.045399
39.79 	0.046488 	4926 	0.045537
39.83 	0.040940 	4934 	0.040703
39.87 	0.048325 	4925 	0.047968
39.91 	0.048151 	4922 	0.047437
39.95 	0.045982 	4915 	0.045863
39.99 	0.044404 	4932 	0.044048
40.03 	0.048701 	4928 	0.048107
40.07 	0.042454 	4923 	0.041859
40.11 	0.040683 	4916 	0.040326
40.15 	0.044983 	4913 	0.044744
40.19 	0.047068 	4929 	0.046355
40.23 	0.045215 	4932 	0.044859
40.27 	0.041321 	4937 	0.040471
40.31 	0.042924 	4939 	0.042331
40.35 	0.043505 	4919 	0.043028
40.39 	0.043399 	4931 	0.042449
40.43 	0.042666 	4922 	0.041951
40.47 	0.043514 	4918 	0.042918
40.51 	0.041650 	4922 	0.040916
40.55 	0.045844 	4908 	0.045366
40.59 	0.042536 	4937 	0.041468
40.63 	0.038134 	4930 	0.037896
40.67 	0.045012 	4932 	0.044418
40.71 	0.040349 	4932 	0.039992
40.75 	0.044616 	4931 	0.044141
40.79 	0.048538 	4924 	0.047705
40.83 	0.043425 	4928 	0.043069
40.87 	0.045049 	4928 	0.044573
40.91 	0.042657 	4923 	0.042062
40.95 	0.039894 	4913 	0.039656
40.99 	0.039602 	4924 	0.039126
41.03 	0.044852 	4905 	0.044374
41.07 	0.041785 	4930 	0.041072
41.11 	0.039919 	4935 	0.039444
41.15 	0.045942 	4941 	0.045468
41.19 	0.050507 	4930 	0.049794
41.23 	0.039077 	4939 	0.038484
41.27 	0.039343 	4931 	0.038630
41.31 	0.046219 	4933 	0.045982
41.35 	0.040907 	4938 	0.040077
41.39 	0.038516 	4933 	0.037665
41.43 	0.040982 	4929 	0.040388
41.47 	0.042022 	4926 	0.041546
41.51 	0.045749 	4940 	0.044919
41.55 	0.036879 	4935 	0.036286
41.59 	0.041557 	4933 	0.041438
41.63 	0.041110 	4938 	0.040754
41.67 	0.045142 	4940 	0.044430
41.71 	0.043575 	4934 	0.042863
41.75 	0.042199 	4929 	0.041486
41.79 	0.036003 	4944 	0.035885
41.83 	0.042005 	4928 	0.041886
41.87 	0.044985 	4935 	0.044273
41.91 	0.043963 	4936 	0.043369
41.95 	0.038937 	4931 	0.038700
41.99 	0.040775 	4905 	0.040058
42.03 	0.038267 	4939 	0.037911
42.07 	0.045372 	4937 	0.044541
42.11 	0.039029 	4945 	0.038911
42.15 	0.044957 	4938 	0.044127
42.19 	0.044417 	4908 	0.044179
42.23 	0.040883 	4892 	0.040045
42.27 	0.034263 	4874 	0.033903
42.31 	0.044490 	4855 	0.043766
42.35 	0.035965 	4838 	0.035844
42.39 	0.038301 	4804 	0.037448
42.43 	0.041110 	4792 	0.040866
42.47 	0.037985 	4765 	0.037494
42.51 	0.040902 	4743 	0.040655
42.55 	0.036746 	4708 	0.036373
42.59 	0.035948 	4729 	0.035577
42.63 	0.041198 	4709 	0.040576
42.67 	0.043553 	4684 	0.043427
42.71 	0.043105 	4663 	0.042603
42.75 	0.042885 	4617 	0.042758
42.79 	0.040157 	4582 	0.039774
42.83 	0.040785 	4536 	0.040527
42.87 	0.037564 	4499 	0.037173
42.91 	0.034336 	4456 	0.034204
42.95 	0.036685 	4416 	0.036154
42.99 	0.041733 	4385 	0.041600
43.03 	0.037849 	4333 	0.037579
43.07 	0.040503 	4296 	0.039685
43.11 	0.035253 	4255 	0.034564
43.15 	0.041607 	4206 	0.041189
43.19 	0.041726 	4194 	0.041168
43.23 	0.038758 	4154 	0.038335
43.27 	0.037272 	4105 	0.036986
43.31 	0.039470 	4079 	0.039183
43.35 	0.038690 	4032 	0.038255
43.39 	0.033733 	4002 	0.033294
43.43 	0.043939 	3960 	0.043471
43.47 	0.040041 	3921 	0.039593
43.51 	0.032241 	3877 	0.032090
43.55 	0.041161 	2964 	0.040172
43.59 	0.044101 	1746 	0.042759
43.63 	0.030969 	1001 	0.030969
43.67 	0.019920 	502 	0.019920
43.71 	0.037657 	239 	0.035206
43.75 	0.000000 	16 	0.000000