Folder: Bessy-II-KMC-II-insitu-sin2psi/Example_Data (part 6)

File: 25SC_s1_0002.009.dat
#F C:\frames\spec\25SC_s1_0002.009
#C title =s:2 frm:9 25SC_s1
#C wavelength =0.15406

#S 1  fr_average C:\frames\spec\25SC_s1_0002.009 C:\win32app\speccom\mask.axs chi 0 180 0 360 0.02
#C 2 theta =0.000000 to 180 deg
#C   q   =0.000000 to 81.568 nm^-1
#C  chi  =0.000000 to 360 deg
#C collumns:
#C  1 position (2theta or chi in degrees)
#C  2 average intensity (sum of all counts in the region divided with number of pixels)
#C  3 Number of pixels in region)
#C  4 error (sum of sqrt(intensity) for all pixels divided by number)
#N 4
#L TTh  Int  N_pix  Err
32.99 	0.065574 	61 	0.065574
33.03 	0.068296 	1391 	0.066612
33.07 	0.065854 	2050 	0.064139
33.11 	0.070570 	2579 	0.068526
33.15 	0.071691 	2999 	0.070323
33.19 	0.064632 	3342 	0.064106
33.23 	0.074368 	3523 	0.072041
33.27 	0.063085 	3630 	0.062117
33.31 	0.062842 	3660 	0.061401
33.35 	0.072279 	3694 	0.071804
33.39 	0.065969 	3729 	0.064713
33.43 	0.069928 	3761 	0.068682
33.47 	0.069774 	3798 	0.068077
33.51 	0.075754 	3815 	0.074679
33.55 	0.067135 	3843 	0.066373
33.59 	0.079639 	3880 	0.078129
33.63 	0.065578 	3919 	0.064532
33.67 	0.067021 	3954 	0.066132
33.71 	0.078994 	3975 	0.077667
33.75 	0.071268 	3999 	0.069339
33.79 	0.076961 	4041 	0.075512
33.83 	0.068889 	4050 	0.067009
33.87 	0.071272 	4111 	0.069990
33.91 	0.067486 	4149 	0.065769
33.95 	0.069361 	4181 	0.067960
33.99 	0.066429 	4200 	0.064894
34.03 	0.076814 	4244 	0.074606
34.07 	0.071931 	4268 	0.070261
34.11 	0.069503 	4302 	0.068549
34.15 	0.071115 	4331 	0.069763
34.19 	0.074966 	4362 	0.073332
34.23 	0.066925 	4393 	0.065591
34.27 	0.064903 	4422 	0.063843
34.31 	0.080305 	4458 	0.078181
34.35 	0.068243 	4484 	0.067589
34.39 	0.074189 	4502 	0.071977
34.43 	0.074906 	4539 	0.073229
34.47 	0.065113 	4592 	0.063710
34.51 	0.061442 	4606 	0.060022
34.55 	0.069352 	4643 	0.068469
34.59 	0.072086 	4675 	0.070185
34.63 	0.068365 	4710 	0.067495
34.67 	0.065809 	4741 	0.064944
34.71 	0.065254 	4766 	0.064148
34.75 	0.070092 	4808 	0.069340
34.79 	0.075249 	4824 	0.073043
34.83 	0.068902 	4862 	0.067456
34.87 	0.068406 	4868 	0.066461
34.91 	0.073535 	4882 	0.072216
34.95 	0.071984 	4890 	0.070426
34.99 	0.070860 	4897 	0.069783
35.03 	0.063524 	4943 	0.061945
35.07 	0.075304 	4940 	0.073762
35.11 	0.071154 	4947 	0.070089
35.15 	0.072311 	4937 	0.071125
35.19 	0.074059 	4942 	0.072518
35.23 	0.072599 	4945 	0.071532
35.27 	0.062854 	4948 	0.061315
35.31 	0.074397 	4933 	0.072853
35.35 	0.070012 	4942 	0.069301
35.39 	0.071183 	4945 	0.069742
35.43 	0.069329 	4933 	0.067746
35.47 	0.070777 	4931 	0.070183
35.51 	0.071661 	4926 	0.070809
35.55 	0.079272 	4945 	0.078087
35.59 	0.071992 	4945 	0.069959
35.63 	0.072021 	4943 	0.070461
35.67 	0.074868 	4942 	0.072972
35.71 	0.071298 	4937 	0.069637
35.75 	0.078483 	4931 	0.075751
35.79 	0.065693 	4932 	0.063892
35.83 	0.073797 	4946 	0.072238
35.87 	0.068251 	4923 	0.067061
35.91 	0.078141 	4927 	0.076357
35.95 	0.070775 	4917 	0.069464
35.99 	0.072889 	4939 	0.071783
36.03 	0.077888 	4943 	0.075162
36.07 	0.072687 	4939 	0.071619
36.11 	0.079935 	4929 	0.078489
36.15 	0.071067 	4939 	0.070118
36.19 	0.074899 	4940 	0.073832
36.23 	0.079635 	4935 	0.078448
36.27 	0.076751 	4925 	0.075324
36.31 	0.072849 	4928 	0.070947
36.35 	0.071211 	4929 	0.069666
36.39 	0.069498 	4921 	0.068546
36.43 	0.079343 	4928 	0.078035
36.47 	0.071718 	4936 	0.070531
36.51 	0.072167 	4933 	0.070723
36.55 	0.074488 	4927 	0.073061
36.59 	0.080786 	4939 	0.078888
36.63 	0.074833 	4931 	0.073625
36.67 	0.072414 	4930 	0.070394
36.71 	0.071937 	4921 	0.070032
36.75 	0.072816 	4944 	0.071631
36.79 	0.074782 	4921 	0.073353
36.83 	0.070193 	4915 	0.068605
36.87 	0.061489 	4944 	0.060541
36.91 	0.068610 	4941 	0.066713
36.95 	0.073383 	4933 	0.070851
36.99 	0.074569 	4935 	0.073264
37.03 	0.070065 	4924 	0.068518
37.07 	0.065856 	4935 	0.064669
37.11 	0.071327 	4935 	0.070259
37.15 	0.068446 	4909 	0.067252
37.19 	0.068223 	4925 	0.067034
37.23 	0.067710 	4918 	0.066500
37.27 	0.064978 	4894 	0.063900
37.31 	0.073961 	4935 	0.072418
37.35 	0.070474 	4938 	0.068794
37.39 	0.068952 	4931 	0.067288
37.43 	0.070762 	4932 	0.069318
37.47 	0.062893 	4929 	0.061586
37.51 	0.065275 	4933 	0.063593
37.55 	0.067546 	4930 	0.066239
37.59 	0.072838 	4915 	0.071170
37.63 	0.075015 	4919 	0.073209
37.67 	0.069331 	4904 	0.067898
37.71 	0.073849 	4929 	0.072304
37.75 	0.070445 	4940 	0.068785
37.79 	0.066329 	4930 	0.064546
37.83 	0.066870 	4920 	0.065560
37.87 	0.079368 	4939 	0.077589
37.91 	0.061663 	4930 	0.060832
37.95 	0.069904 	4921 	0.068218
37.99 	0.069015 	4912 	0.067941
38.03 	0.066409 	4909 	0.064977
38.07 	0.069872 	4909 	0.068678
38.11 	0.068896 	4935 	0.067709
38.15 	0.072387 	4918 	0.070819
38.19 	0.068357 	4930 	0.067268
38.23 	0.063386 	4938 	0.062437
38.27 	0.065517 	4930 	0.064329
38.31 	0.070834 	4927 	0.069883
38.35 	0.076096 	4928 	0.073679
38.39 	0.087187 	4909 	0.085258
38.43 	0.081367 	4916 	0.079441
38.47 	0.083554 	4907 	0.081405
38.51 	0.089213 	4932 	0.086719
38.55 	0.083063 	4936 	0.080808
38.59 	0.079813 	4924 	0.078029
38.63 	0.077376 	4924 	0.075473
38.67 	0.080413 	4937 	0.078040
38.71 	0.071487 	4924 	0.069940
38.75 	0.068602 	4927 	0.067769
38.79 	0.079449 	4934 	0.077549
38.83 	0.067900 	4919 	0.066570
38.87 	0.069232 	4911 	0.068159
38.91 	0.073832 	4903 	0.071782
38.95 	0.063644 	4918 	0.062810
38.99 	0.061778 	4937 	0.060928
39.03 	0.058573 	4934 	0.057980
39.07 	0.067831 	4924 	0.066284
39.11 	0.067329 	4931 	0.066240
39.15 	0.063886 	4915 	0.062933
39.19 	0.065487 	4917 	0.064415
39.23 	0.061117 	4925 	0.060403
39.27 	0.069450 	4910 	0.068018
39.31 	0.062039 	4884 	0.060960
39.35 	0.065451 	4935 	0.063532
39.39 	0.067154 	4929 	0.066203
39.43 	0.062842 	4933 	0.061417
39.47 	0.062767 	4923 	0.060724
39.51 	0.067019 	4924 	0.066662
39.55 	0.066274 	4919 	0.064706
39.59 	0.071050 	4912 	0.069242
39.63 	0.074563 	4922 	0.073234
39.67 	0.067169 	4913 	0.065957
39.71 	0.067416 	4895 	0.066099
39.75 	0.066558 	4928 	0.064875
39.79 	0.071458 	4926 	0.070031
39.83 	0.069720 	4934 	0.069008
39.87 	0.062741 	4925 	0.061790
39.91 	0.062373 	4922 	0.061778
39.95 	0.062869 	4915 	0.061200
39.99 	0.068127 	4932 	0.066939
40.03 	0.069602 	4928 	0.068057
40.07 	0.068048 	4923 	0.067215
40.11 	0.059601 	4916 	0.058867
40.15 	0.057602 	4913 	0.056390
40.19 	0.057618 	4929 	0.056667
40.23 	0.059611 	4932 	0.059254
40.27 	0.059348 	4937 	0.058755
40.31 	0.067827 	4939 	0.066879
40.35 	0.054686 	4919 	0.053852
40.39 	0.062259 	4931 	0.061546
40.43 	0.059935 	4922 	0.058983
40.47 	0.060797 	4918 	0.060063
40.51 	0.063592 	4922 	0.062025
40.55 	0.057865 	4908 	0.057507
40.59 	0.064209 	4937 	0.063497
40.63 	0.062475 	4930 	0.060673
40.67 	0.059813 	4932 	0.058626
40.71 	0.058800 	4932 	0.057968
40.75 	0.061448 	4931 	0.060141
40.79 	0.064988 	4924 	0.064036
40.83 	0.061688 	4928 	0.061094
40.87 	0.060268 	4928 	0.059792
40.91 	0.061345 	4923 	0.060274
40.95 	0.057602 	4913 	0.056529
40.99 	0.065800 	4924 	0.064710
41.03 	0.063609 	4905 	0.063011
41.07 	0.061663 	4930 	0.060475
41.11 	0.059980 	4935 	0.059149
41.15 	0.056669 	4941 	0.056432
41.19 	0.063286 	4930 	0.062098
41.23 	0.061956 	4939 	0.060533
41.27 	0.060637 	4931 	0.059330
41.31 	0.061423 	4933 	0.060354
41.35 	0.058323 	4938 	0.057711
41.39 	0.068721 	4933 	0.067158
41.43 	0.056401 	4929 	0.055569
41.47 	0.060292 	4926 	0.059103
41.51 	0.057895 	4940 	0.057065
41.55 	0.060588 	4935 	0.059638
41.59 	0.056558 	4933 	0.056202
41.63 	0.060753 	4938 	0.059448
41.67 	0.060931 	4940 	0.059745
41.71 	0.061208 	4934 	0.060258
41.75 	0.059241 	4929 	0.057934
41.79 	0.061489 	4944 	0.060304
41.83 	0.060471 	4928 	0.059995
41.87 	0.064843 	4935 	0.063755
41.91 	0.057536 	4936 	0.056350
41.95 	0.061448 	4931 	0.061092
41.99 	0.062589 	4905 	0.061156
42.03 	0.058109 	4939 	0.056785
42.07 	0.062994 	4937 	0.062045
42.11 	0.057432 	4945 	0.056484
42.15 	0.052450 	4938 	0.051739
42.19 	0.054605 	4908 	0.053172
42.23 	0.054988 	4892 	0.054150
42.27 	0.054780 	4874 	0.054059
42.31 	0.057055 	4855 	0.055708
42.35 	0.059115 	4838 	0.058147
42.39 	0.058077 	4804 	0.057345
42.43 	0.062396 	4792 	0.061540
42.47 	0.056034 	4765 	0.054887
42.51 	0.053342 	4743 	0.052971
42.55 	0.060110 	4708 	0.058866
42.59 	0.061958 	4729 	0.061463
42.63 	0.049904 	4709 	0.049780
42.67 	0.055722 	4684 	0.053950
42.71 	0.056616 	4663 	0.055360
42.75 	0.053065 	4617 	0.052304
42.79 	0.060890 	4582 	0.058931
42.83 	0.054674 	4536 	0.054028
42.87 	0.058902 	4499 	0.058381
42.91 	0.057899 	4456 	0.057768
42.95 	0.057292 	4416 	0.056739
42.99 	0.056328 	4385 	0.055126
43.03 	0.057928 	4333 	0.056846
43.07 	0.058426 	4296 	0.057472
43.11 	0.058284 	4255 	0.057458
43.15 	0.055635 	4206 	0.054521
43.19 	0.051741 	4194 	0.051042
43.23 	0.052720 	4154 	0.052015
43.27 	0.055055 	4105 	0.054484
43.31 	0.056632 	4079 	0.055339
43.35 	0.059276 	4032 	0.057968
43.39 	0.054973 	4002 	0.054533
43.43 	0.053535 	3960 	0.052944
43.47 	0.052538 	3921 	0.051492
43.51 	0.054166 	3877 	0.053863
43.55 	0.048583 	2964 	0.048188
43.59 	0.056701 	1746 	0.055024
43.63 	0.040959 	1001 	0.040374
43.67 	0.047809 	502 	0.046642
43.71 	0.046025 	239 	0.046025
43.75 	0.125000 	16 	0.125000

File: 25SC_s1_0003.000.dat
#F C:\frames\spec\25SC_s1_0003.000
#C title =s:3 frm:0 25SC_s1
#C wavelength =0.15406

#S 1  fr_average C:\frames\spec\25SC_s1_0003.000 C:\win32app\speccom\mask.axs chi 0 180 0 360 0.02
#C 2 theta =0.000000 to 180 deg
#C   q   =0.000000 to 81.568 nm^-1
#C  chi  =0.000000 to 360 deg
#C collumns:
#C  1 position (2theta or chi in degrees)
#C  2 average intensity (sum of all counts in the region divided with number of pixels)
#C  3 Number of pixels in region)
#C  4 error (sum of sqrt(intensity) for all pixels divided by number)
#N 4
#L TTh  Int  N_pix  Err
32.99 	0.065574 	61 	0.055971
33.03 	0.053918 	1391 	0.053076
33.07 	0.053171 	2050 	0.052599
33.11 	0.066305 	2579 	0.064942
33.15 	0.052684 	2999 	0.051708
33.19 	0.055655 	3342 	0.054954
33.23 	0.060744 	3523 	0.059413
33.27 	0.054270 	3630 	0.053140
33.31 	0.057104 	3660 	0.056277
33.35 	0.060368 	3694 	0.059100
33.39 	0.065433 	3729 	0.064019
33.43 	0.064876 	3761 	0.063163
33.47 	0.057135 	3798 	0.056364
33.51 	0.062123 	3815 	0.061202
33.55 	0.067916 	3843 	0.066544
33.59 	0.057732 	3880 	0.056373
33.63 	0.058178 	3919 	0.056808
33.67 	0.056146 	3954 	0.054664
33.71 	0.055094 	3975 	0.053915
33.75 	0.066017 	3999 	0.064674
33.79 	0.056422 	4041 	0.054972
33.83 	0.060247 	4050 	0.058511
33.87 	0.061299 	4111 	0.060017
33.91 	0.062184 	4149 	0.060913
33.95 	0.057163 	4181 	0.056323
33.99 	0.058571 	4200 	0.057572
34.03 	0.060556 	4244 	0.059728
34.07 	0.061153 	4268 	0.059598
34.11 	0.059275 	4302 	0.058866
34.15 	0.057262 	4331 	0.055909
34.19 	0.056625 	4362 	0.055685
34.23 	0.055771 	4393 	0.055104
34.27 	0.057666 	4422 	0.056452
34.31 	0.061238 	4458 	0.060187
34.35 	0.059768 	4484 	0.058070
34.39 	0.059529 	4502 	0.058488
34.43 	0.058383 	4539 	0.057480
34.47 	0.054225 	4592 	0.053204
34.51 	0.061224 	4606 	0.060313
34.55 	0.058152 	4643 	0.057269
34.59 	0.060963 	4675 	0.060336
34.63 	0.054352 	4710 	0.052984
34.67 	0.059481 	4741 	0.057875
34.71 	0.058330 	4766 	0.057347
34.75 	0.065724 	4808 	0.064505
34.79 	0.052446 	4824 	0.051718
34.83 	0.063143 	4862 	0.062159
34.87 	0.058546 	4868 	0.057703
34.91 	0.057763 	4882 	0.057163
34.95 	0.056851 	4890 	0.056252
34.99 	0.063917 	4897 	0.063319
35.03 	0.060085 	4943 	0.059018
35.07 	0.064777 	4940 	0.064066
35.11 	0.056398 	4947 	0.055806
35.15 	0.063196 	4937 	0.061891
35.19 	0.055038 	4942 	0.054683
35.23 	0.066127 	4945 	0.064824
35.27 	0.059620 	4948 	0.058180
35.31 	0.060612 	4933 	0.059425
35.35 	0.055848 	4942 	0.054781
35.39 	0.062892 	4945 	0.061470
35.43 	0.066694 	4933 	0.064794
35.47 	0.061042 	4931 	0.059617
35.51 	0.063134 	4926 	0.061588
35.55 	0.060263 	4945 	0.059059
35.59 	0.066330 	4945 	0.064553
35.63 	0.060894 	4943 	0.060183
35.67 	0.057669 	4942 	0.056464
35.71 	0.056107 	4937 	0.055632
35.75 	0.059623 	4931 	0.058554
35.79 	0.056164 	4932 	0.055570
35.83 	0.056814 	4946 	0.055866
35.87 	0.060126 	4923 	0.058460
35.91 	0.059874 	4927 	0.058923
35.95 	0.060809 	4917 	0.059261
35.99 	0.069447 	4939 	0.067905
36.03 	0.063120 	4943 	0.061204
36.07 	0.062968 	4939 	0.062257
36.11 	0.059647 	4929 	0.058696
36.15 	0.064183 	4939 	0.063234
36.19 	0.061943 	4940 	0.060402
36.23 	0.064438 	4935 	0.063369
36.27 	0.065178 	4925 	0.063969
36.31 	0.062094 	4928 	0.061500
36.35 	0.061676 	4929 	0.060725
36.39 	0.063808 	4921 	0.062856
36.43 	0.057630 	4928 	0.056441
36.47 	0.060373 	4936 	0.059067
36.51 	0.064261 	4933 	0.062817
36.55 	0.063325 	4927 	0.062492
36.59 	0.056489 	4939 	0.055185
36.63 	0.062462 	4931 	0.061512
36.67 	0.061460 	4930 	0.059777
36.71 	0.058728 	4921 	0.057538
36.75 	0.061286 	4944 	0.060457
36.79 	0.065840 	4921 	0.064174
36.83 	0.057172 	4915 	0.055722
36.87 	0.068972 	4944 	0.067432
36.91 	0.066990 	4941 	0.065331
36.95 	0.060207 	4933 	0.059019
36.99 	0.061803 	4935 	0.060379
37.03 	0.058895 	4924 	0.058300
37.07 	0.055927 	4935 	0.055334
37.11 	0.067882 	4935 	0.066557
37.15 	0.065798 	4909 	0.064962
37.19 	0.062538 	4925 	0.061230
37.23 	0.061407 	4918 	0.060335
37.27 	0.066408 	4894 	0.064593
37.31 	0.057548 	4935 	0.056698
37.35 	0.059133 	4938 	0.058421
37.39 	0.056784 	4931 	0.055714
37.43 	0.061841 	4932 	0.061010
37.47 	0.055792 	4929 	0.054960
37.51 	0.062234 	4933 	0.061759
37.55 	0.056187 	4930 	0.055474
37.59 	0.052289 	4915 	0.051574
37.63 	0.054076 	4919 	0.053104
37.67 	0.056077 	4904 	0.054643
37.71 	0.051532 	4929 	0.050938
37.75 	0.057287 	4940 	0.056220
37.79 	0.054564 	4930 	0.053613
37.83 	0.062195 	4920 	0.061104
37.87 	0.058716 	4939 	0.057748
37.91 	0.054564 	4930 	0.053257
37.95 	0.057305 	4921 	0.056334
37.99 	0.054153 	4912 	0.053557
38.03 	0.056223 	4909 	0.054294
38.07 	0.054186 	4909 	0.053709
38.11 	0.054711 	4935 	0.053999
38.15 	0.055307 	4918 	0.054831
38.19 	0.060041 	4930 	0.059289
38.23 	0.058931 	4938 	0.057507
38.27 	0.060243 	4930 	0.058936
38.31 	0.069616 	4927 	0.068170
38.35 	0.076299 	4928 	0.074753
38.39 	0.077409 	4909 	0.075480
38.43 	0.083401 	4916 	0.081852
38.47 	0.087222 	4907 	0.085074
38.51 	0.082320 	4932 	0.080300
38.55 	0.083063 	4936 	0.081026
38.59 	0.079001 	4924 	0.077811
38.63 	0.071284 	4924 	0.069380
38.67 	0.066235 	4937 	0.064673
38.71 	0.068643 	4924 	0.067196
38.75 	0.060280 	4927 	0.059567
38.79 	0.056749 	4934 	0.055681
38.83 	0.056516 	4919 	0.055801
38.87 	0.050092 	4911 	0.049615
38.91 	0.054049 	4903 	0.053332
38.95 	0.048597 	4918 	0.047525
38.99 	0.054081 	4937 	0.053014
39.03 	0.045602 	4934 	0.045008
39.07 	0.051584 	4924 	0.050870
39.11 	0.048672 	4931 	0.047721
39.15 	0.046389 	4915 	0.046031
39.19 	0.041692 	4917 	0.041096
39.23 	0.043249 	4925 	0.042535
39.27 	0.049084 	4910 	0.048726
39.31 	0.045045 	4884 	0.044565
39.35 	0.045187 	4935 	0.044831
39.39 	0.045851 	4929 	0.045118
39.43 	0.046017 	4933 	0.045423
39.47 	0.047329 	4923 	0.046853
39.51 	0.048132 	4924 	0.047398
39.55 	0.044521 	4919 	0.043807
39.59 	0.044992 	4912 	0.044634
39.63 	0.045104 	4922 	0.044271
39.67 	0.047629 	4913 	0.047152
39.71 	0.050868 	4895 	0.050390
39.75 	0.043019 	4928 	0.042663
39.79 	0.051157 	4926 	0.049730
39.83 	0.047223 	4934 	0.046511
39.87 	0.046091 	4925 	0.045497
39.91 	0.046526 	4922 	0.045693
39.95 	0.046796 	4915 	0.045961
39.99 	0.039132 	4932 	0.038895
40.03 	0.044440 	4928 	0.043846
40.07 	0.049766 	4923 	0.049052
40.11 	0.045566 	4916 	0.044116
40.15 	0.044983 	4913 	0.043910
40.19 	0.040779 	4929 	0.039690
40.23 	0.038321 	4932 	0.037846
40.27 	0.043954 	4937 	0.042886
40.31 	0.044543 	4939 	0.043456
40.35 	0.041878 	4919 	0.041759
40.39 	0.042182 	4931 	0.041945
40.43 	0.045916 	4922 	0.045678
40.47 	0.044327 	4918 	0.043851
40.51 	0.040634 	4922 	0.039563
40.55 	0.044214 	4908 	0.043855
40.59 	0.046992 	4937 	0.046517
40.63 	0.048682 	4930 	0.047949
40.67 	0.038929 	4932 	0.038573
40.71 	0.042782 	4932 	0.042307
40.75 	0.043602 	4931 	0.043008
40.79 	0.041430 	4924 	0.040835
40.83 	0.044643 	4928 	0.044167
40.87 	0.046875 	4928 	0.046162
40.91 	0.047938 	4923 	0.047462
40.95 	0.046611 	4913 	0.045896
40.99 	0.042445 	4924 	0.041850
41.03 	0.043017 	4905 	0.042181
41.07 	0.048073 	4930 	0.047479
41.11 	0.044580 	4935 	0.044105
41.15 	0.044728 	4941 	0.044491
41.19 	0.041785 	4930 	0.040716
41.23 	0.040494 	4939 	0.040257
41.27 	0.045021 	4931 	0.044190
41.31 	0.044192 	4933 	0.043242
41.35 	0.042325 	4938 	0.041850
41.39 	0.044598 	4933 	0.044004
41.43 	0.042199 	4929 	0.041843
41.47 	0.044661 	4926 	0.044066
41.51 	0.046154 	4940 	0.045917
41.55 	0.037487 	4935 	0.037250
41.59 	0.042976 	4933 	0.042738
41.63 	0.040502 	4938 	0.040265
41.67 	0.040891 	4940 	0.040416
41.71 	0.039724 	4934 	0.039606
41.75 	0.038547 	4929 	0.038072
41.79 	0.039846 	4944 	0.039116
41.83 	0.038352 	4928 	0.038233
41.87 	0.045187 	4935 	0.044594
41.91 	0.039708 	4936 	0.039352
41.95 	0.047049 	4931 	0.046099
41.99 	0.042610 	4905 	0.041774
42.03 	0.041304 	4939 	0.040948
42.07 	0.040916 	4937 	0.040678
42.11 	0.038827 	4945 	0.038590
42.15 	0.037870 	4938 	0.037751
42.19 	0.037897 	4908 	0.037659
42.23 	0.040679 	4892 	0.040319
42.27 	0.041855 	4874 	0.041855
42.31 	0.041195 	4855 	0.040712
42.35 	0.038446 	4838 	0.038203
42.39 	0.043297 	4804 	0.042668
42.43 	0.041319 	4792 	0.040708
42.47 	0.040294 	4765 	0.040048
42.51 	0.040481 	4743 	0.040110
42.55 	0.041631 	4708 	0.041258
42.59 	0.040178 	4729 	0.039930
42.63 	0.041835 	4709 	0.041088
42.67 	0.043339 	4684 	0.042839
42.71 	0.038173 	4663 	0.037419
42.75 	0.037037 	4617 	0.036783
42.79 	0.037975 	4582 	0.037719
42.83 	0.042328 	4536 	0.042199
42.87 	0.036897 	4499 	0.036506
42.91 	0.041741 	4456 	0.041347
42.95 	0.042572 	4416 	0.041777
42.99 	0.036032 	4385 	0.035631
43.03 	0.036926 	4333 	0.036385
43.07 	0.034451 	4296 	0.034314
43.11 	0.039013 	4255 	0.038738
43.15 	0.041369 	4206 	0.040673
43.19 	0.039342 	4194 	0.038783
43.23 	0.041406 	4154 	0.040560
43.27 	0.038246 	4105 	0.037961
43.31 	0.034077 	4079 	0.033646
43.35 	0.037202 	4032 	0.036331
43.39 	0.039730 	4002 	0.039437
43.43 	0.042172 	3960 	0.041580
43.47 	0.047182 	3921 	0.046883
43.51 	0.043848 	3877 	0.042942
43.55 	0.035762 	2964 	0.035367
43.59 	0.041810 	1746 	0.040468
43.63 	0.033966 	1001 	0.033966
43.67 	0.021912 	502 	0.020745
43.71 	0.025105 	239 	0.025105
43.75 	0.062500 	16 	0.062500