Folder: Bessy-II-KMC-II-insitu-sin2psi/Example_Data (part 81)

File: 25SC_s1_0032.004.dat
#F C:\frames\spec\25SC_s1_0032.004
#C title =s:32 frm:4 25SC_s1
#C wavelength =0.15406

#S 1  fr_average C:\frames\spec\25SC_s1_0032.004 C:\win32app\speccom\mask.axs chi 0 180 0 360 0.02
#C 2 theta =0.000000 to 180 deg
#C   q   =0.000000 to 81.568 nm^-1
#C  chi  =0.000000 to 360 deg
#C collumns:
#C  1 position (2theta or chi in degrees)
#C  2 average intensity (sum of all counts in the region divided with number of pixels)
#C  3 Number of pixels in region)
#C  4 error (sum of sqrt(intensity) for all pixels divided by number)
#N 4
#L TTh  Int  N_pix  Err
32.99 	0.098361 	61 	0.098361
33.03 	0.058950 	1391 	0.057618
33.07 	0.050732 	2050 	0.050732
33.11 	0.057774 	2579 	0.055503
33.15 	0.061020 	2999 	0.059262
33.19 	0.053262 	3342 	0.052560
33.23 	0.062731 	3523 	0.060403
33.27 	0.056198 	3630 	0.054907
33.31 	0.054918 	3660 	0.053798
33.35 	0.060368 	3694 	0.059258
33.39 	0.051488 	3729 	0.050860
33.43 	0.058229 	3761 	0.057295
33.47 	0.062928 	3798 	0.061977
33.51 	0.062385 	3815 	0.061439
33.55 	0.064533 	3843 	0.063313
33.59 	0.064175 	3880 	0.062967
33.63 	0.054861 	3919 	0.054114
33.67 	0.052605 	3954 	0.051716
33.71 	0.059623 	3975 	0.059181
33.75 	0.058515 	3999 	0.056610
33.79 	0.048255 	4041 	0.047531
33.83 	0.054568 	4050 	0.052977
33.87 	0.061056 	4111 	0.059916
33.91 	0.057845 	4149 	0.056998
33.95 	0.060512 	4181 	0.059811
33.99 	0.063095 	4200 	0.061678
34.03 	0.058435 	4244 	0.056917
34.07 	0.062324 	4268 	0.061775
34.11 	0.054393 	4302 	0.052737
34.15 	0.053336 	4331 	0.052390
34.19 	0.055021 	4362 	0.054349
34.23 	0.054177 	4393 	0.052844
34.27 	0.057666 	4422 	0.057004
34.31 	0.055406 	4458 	0.054092
34.35 	0.062221 	4484 	0.061307
34.39 	0.062195 	4502 	0.061024
34.43 	0.058824 	4539 	0.057533
34.47 	0.059451 	4592 	0.058813
34.51 	0.052323 	4606 	0.051306
34.55 	0.059660 	4643 	0.059029
34.59 	0.060535 	4675 	0.058655
34.63 	0.052654 	4710 	0.051908
34.67 	0.056317 	4741 	0.055823
34.71 	0.056441 	4766 	0.055438
34.75 	0.053869 	4808 	0.052874
34.79 	0.054519 	4824 	0.053790
34.83 	0.058618 	4862 	0.057534
34.87 	0.058340 	4868 	0.057117
34.91 	0.057763 	4882 	0.056923
34.95 	0.058282 	4890 	0.056964
34.99 	0.055136 	4897 	0.053940
35.03 	0.059883 	4943 	0.058935
35.07 	0.057085 	4940 	0.055543
35.11 	0.060036 	4947 	0.058852
35.15 	0.056917 	4937 	0.055731
35.19 	0.063335 	4942 	0.061912
35.23 	0.060465 	4945 	0.059399
35.27 	0.058812 	4948 	0.057628
35.31 	0.060004 	4933 	0.059054
35.35 	0.060907 	4942 	0.059721
35.39 	0.063701 	4945 	0.062753
35.43 	0.055544 	4933 	0.055188
35.47 	0.053336 	4931 	0.052861
35.51 	0.057653 	4926 	0.056702
35.55 	0.054601 	4945 	0.053416
35.59 	0.056421 	4945 	0.055828
35.63 	0.060287 	4943 	0.059339
35.67 	0.053217 	4942 	0.052506
35.71 	0.054892 	4937 	0.053448
35.75 	0.050497 	4931 	0.049784
35.79 	0.057786 	4932 	0.056717
35.83 	0.052770 	4946 	0.052178
35.87 	0.059517 	4923 	0.058803
35.91 	0.053988 	4927 	0.053037
35.95 	0.054098 	4917 	0.052549
35.99 	0.057704 	4939 	0.056281
36.03 	0.054218 	4943 	0.053270
36.07 	0.056894 	4939 	0.055708
36.11 	0.058835 	4929 	0.057885
36.15 	0.056489 	4939 	0.055778
36.19 	0.054251 	4940 	0.053421
36.23 	0.059169 	4935 	0.058576
36.27 	0.064162 	4925 	0.062953
36.31 	0.065747 	4928 	0.064320
36.35 	0.054778 	4929 	0.054540
36.39 	0.054257 	4921 	0.053642
36.43 	0.050731 	4928 	0.050136
36.47 	0.056321 	4936 	0.054778
36.51 	0.057369 	4933 	0.056181
36.55 	0.056830 	4927 	0.055997
36.59 	0.058109 	4939 	0.056686
36.63 	0.058406 	4931 	0.057337
36.67 	0.051521 	4930 	0.050789
36.71 	0.062792 	4921 	0.061840
36.75 	0.049150 	4944 	0.048321
36.79 	0.048567 	4921 	0.047734
36.83 	0.060427 	4915 	0.059097
36.87 	0.049960 	4944 	0.049486
36.91 	0.052216 	4941 	0.051742
36.95 	0.053720 	4933 	0.052869
36.99 	0.057345 	4935 	0.056158
37.03 	0.058083 	4924 	0.056893
37.07 	0.053293 	4935 	0.052699
37.11 	0.054711 	4935 	0.054118
37.15 	0.053168 	4909 	0.052094
37.19 	0.057462 	4925 	0.056134
37.23 	0.053274 	4918 	0.052659
37.27 	0.050061 	4894 	0.049223
37.31 	0.055724 	4935 	0.054894
37.35 	0.058728 	4938 	0.057661
37.39 	0.054553 	4931 	0.053484
37.43 	0.053528 	4932 	0.053172
37.47 	0.049300 	4929 	0.048349
37.51 	0.054531 	4933 	0.053818
37.55 	0.054767 	4930 	0.053579
37.59 	0.053917 	4915 	0.052606
37.63 	0.050213 	4919 	0.049718
37.67 	0.060563 	4904 	0.059607
37.71 	0.057618 	4929 	0.056549
37.75 	0.049190 	4940 	0.048360
37.79 	0.055375 	4930 	0.054544
37.83 	0.054268 	4920 	0.053435
37.87 	0.052440 	4939 	0.051847
37.91 	0.056389 	4930 	0.055301
37.95 	0.056493 	4921 	0.055659
37.99 	0.053339 	4912 	0.052265
38.03 	0.059483 	4909 	0.058409
38.07 	0.059279 	4909 	0.058324
38.11 	0.055927 	4935 	0.055096
38.15 	0.057544 	4918 	0.056472
38.19 	0.061866 	4930 	0.060797
38.23 	0.058121 	4938 	0.057172
38.27 	0.061460 	4930 	0.060153
38.31 	0.060280 	4927 	0.059091
38.35 	0.075487 	4928 	0.073823
38.39 	0.068853 	4909 	0.066944
38.43 	0.064280 	4916 	0.063088
38.47 	0.063379 	4907 	0.062185
38.51 	0.062247 	4932 	0.061415
38.55 	0.066248 	4936 	0.064943
38.59 	0.057677 	4924 	0.056368
38.63 	0.059504 	4924 	0.058077
38.67 	0.055904 	4937 	0.055548
38.71 	0.050772 	4924 	0.050177
38.75 	0.052365 	4927 	0.051532
38.79 	0.059587 	4934 	0.058755
38.83 	0.050620 	4919 	0.049767
38.87 	0.052739 	4911 	0.051307
38.91 	0.053845 	4903 	0.052889
38.95 	0.051240 	4918 	0.049930
38.99 	0.054689 	4937 	0.054096
39.03 	0.056952 	4934 	0.056477
39.07 	0.048741 	4924 	0.047908
39.11 	0.055770 	4931 	0.055057
39.15 	0.062258 	4915 	0.061405
39.19 	0.053081 	4917 	0.052247
39.23 	0.054619 	4925 	0.053430
39.27 	0.060692 	4910 	0.059122
39.31 	0.053235 	4884 	0.051896
39.35 	0.058561 	4935 	0.057968
39.39 	0.050720 	4929 	0.049769
39.43 	0.052909 	4933 	0.052078
39.47 	0.049157 	4923 	0.048443
39.51 	0.058692 	4924 	0.057621
39.55 	0.052653 	4919 	0.051343
39.59 	0.054153 	4912 	0.053318
39.63 	0.051808 	4922 	0.050499
39.67 	0.055160 	4913 	0.054921
39.71 	0.051073 	4895 	0.050355
39.75 	0.052557 	4928 	0.051943
39.79 	0.053593 	4926 	0.052523
39.83 	0.055330 	4934 	0.054855
39.87 	0.053198 	4925 	0.052246
39.91 	0.051199 	4922 	0.050485
39.95 	0.061851 	4915 	0.061256
39.99 	0.055150 	4932 	0.054200
40.03 	0.050731 	4928 	0.049898
40.07 	0.050985 	4923 	0.050747
40.11 	0.054516 	4916 	0.053682
40.15 	0.055160 	4913 	0.053471
40.19 	0.048489 	4929 	0.047775
40.23 	0.050081 	4932 	0.049487
40.27 	0.052664 	4937 	0.051714
40.31 	0.047378 	4939 	0.046785
40.35 	0.049604 	4919 	0.049008
40.39 	0.051105 	4931 	0.050155
40.43 	0.055465 	4922 	0.054275
40.47 	0.043310 	4918 	0.042477
40.51 	0.051605 	4922 	0.050891
40.55 	0.049511 	4908 	0.049272
40.59 	0.052866 	4937 	0.052629
40.63 	0.051724 	4930 	0.050417
40.67 	0.051298 	4932 	0.050466
40.71 	0.053933 	4932 	0.052983
40.75 	0.052322 	4931 	0.051728
40.79 	0.052193 	4924 	0.051460
40.83 	0.056412 	4928 	0.055323
40.87 	0.051948 	4928 	0.050878
40.91 	0.050376 	4923 	0.049543
40.95 	0.050885 	4913 	0.050289
40.99 	0.051381 	4924 	0.050548
41.03 	0.050968 	4905 	0.050132
41.07 	0.049087 	4930 	0.048493
41.11 	0.051064 	4935 	0.049877
41.15 	0.052014 	4941 	0.051777
41.19 	0.044422 	4930 	0.043947
41.23 	0.044341 	4939 	0.043867
41.27 	0.044616 	4931 	0.043784
41.31 	0.046017 	4933 	0.045423
41.35 	0.046578 	4938 	0.045866
41.39 	0.058788 	4933 	0.058075
41.43 	0.045851 	4929 	0.044306
41.47 	0.049330 	4926 	0.048260
41.51 	0.052632 	4940 	0.052039
41.55 	0.047822 	4935 	0.046753
41.59 	0.048044 	4933 	0.047094
41.63 	0.049818 	4938 	0.049106
41.67 	0.053036 	4940 	0.052088
41.71 	0.046007 	4934 	0.045295
41.75 	0.044634 	4929 	0.044277
41.79 	0.043689 	4944 	0.043077
41.83 	0.047484 	4928 	0.047246
41.87 	0.047011 	4935 	0.046180
41.91 	0.047812 	4936 	0.047575
41.95 	0.042993 	4931 	0.042399
41.99 	0.045260 	4905 	0.044663
42.03 	0.039684 	4939 	0.039328
42.07 	0.045574 	4937 	0.045100
42.11 	0.047927 	4945 	0.046861
42.15 	0.048603 	4938 	0.048010
42.19 	0.045640 	4908 	0.045043
42.23 	0.050695 	4892 	0.049737
42.27 	0.045753 	4874 	0.045152
42.31 	0.043872 	4855 	0.043510
42.35 	0.048987 	4838 	0.047776
42.39 	0.050167 	4804 	0.049313
42.43 	0.046327 	4792 	0.045085
42.47 	0.048688 	4765 	0.048442
42.51 	0.050390 	4743 	0.049649
42.55 	0.046941 	4708 	0.046568
42.59 	0.048002 	4729 	0.047382
42.63 	0.044595 	4709 	0.044098
42.67 	0.048463 	4684 	0.047963
42.71 	0.045464 	4663 	0.044836
42.75 	0.042019 	4617 	0.041638
42.79 	0.044304 	4582 	0.043920
42.83 	0.042549 	4536 	0.042419
42.87 	0.048900 	4499 	0.048509
42.91 	0.044210 	4456 	0.043553
42.95 	0.043478 	4416 	0.042948
42.99 	0.048119 	4385 	0.047451
43.03 	0.048234 	4333 	0.047288
43.07 	0.045158 	4296 	0.044886
43.11 	0.046769 	4255 	0.046218
43.15 	0.048264 	4206 	0.047707
43.19 	0.048402 	4194 	0.047844
43.23 	0.044054 	4154 	0.043631
43.27 	0.044093 	4105 	0.042951
43.31 	0.043148 	4079 	0.042717
43.35 	0.042163 	4032 	0.041291
43.39 	0.046477 	4002 	0.045599
43.43 	0.052020 	3960 	0.051133
43.47 	0.045397 	3921 	0.044799
43.51 	0.044364 	3877 	0.043307
43.55 	0.055331 	2964 	0.054145
43.59 	0.047537 	1746 	0.047202
43.63 	0.044955 	1001 	0.044955
43.67 	0.051793 	502 	0.051793
43.71 	0.046025 	239 	0.046025
43.75 	0.062500 	16 	0.062500

File: 25SC_s1_0033.000.dat
#F C:\frames\spec\25SC_s1_0033.000
#C title =s:33 frm:0 25SC_s1
#C wavelength =0.15406

#S 1  fr_average C:\frames\spec\25SC_s1_0033.000 C:\win32app\speccom\mask.axs chi 0 180 0 360 0.02
#C 2 theta =0.000000 to 180 deg
#C   q   =0.000000 to 81.568 nm^-1
#C  chi  =0.000000 to 360 deg
#C collumns:
#C  1 position (2theta or chi in degrees)
#C  2 average intensity (sum of all counts in the region divided with number of pixels)
#C  3 Number of pixels in region)
#C  4 error (sum of sqrt(intensity) for all pixels divided by number)
#N 4
#L TTh  Int  N_pix  Err
32.99 	0.065574 	61 	0.065574
33.03 	0.058231 	1391 	0.057389
33.07 	0.067805 	2050 	0.065425
33.11 	0.074447 	2579 	0.072593
33.15 	0.057686 	2999 	0.057491
33.19 	0.051167 	3342 	0.050641
33.23 	0.061028 	3523 	0.060529
33.27 	0.062810 	3630 	0.062003
33.31 	0.058470 	3660 	0.057670
33.35 	0.059827 	3694 	0.059192
33.39 	0.070260 	3729 	0.068689
33.43 	0.057697 	3761 	0.056582
33.47 	0.071090 	3798 	0.069548
33.51 	0.072608 	3815 	0.071840
33.55 	0.054124 	3843 	0.053515
33.59 	0.057474 	3880 	0.057172
33.63 	0.060730 	3919 	0.059833
33.67 	0.061204 	3954 	0.060019
33.71 	0.068428 	3975 	0.067101
33.75 	0.065766 	3999 	0.064009
33.79 	0.067805 	4041 	0.066645
33.83 	0.065679 	4050 	0.063775
33.87 	0.058623 	4111 	0.057911
33.91 	0.067486 	4149 	0.066192
33.95 	0.065295 	4181 	0.063171
33.99 	0.057143 	4200 	0.056445
34.03 	0.062677 	4244 	0.061412
34.07 	0.062559 	4268 	0.061163
34.11 	0.063924 	4302 	0.062812
34.15 	0.053106 	4331 	0.052565
34.19 	0.054333 	4362 	0.053930
34.23 	0.056453 	4393 	0.055253
34.27 	0.058797 	4422 	0.058113
34.31 	0.058995 	4458 	0.057681
34.35 	0.061552 	4484 	0.060747
34.39 	0.059085 	4502 	0.058174
34.43 	0.058383 	4539 	0.057480
34.47 	0.062936 	4592 	0.062043
34.51 	0.053843 	4606 	0.052571
34.55 	0.057721 	4643 	0.056817
34.59 	0.061390 	4675 	0.060513
34.63 	0.057962 	4710 	0.057091
34.67 	0.056106 	4741 	0.055118
34.71 	0.058120 	4766 	0.057628
34.75 	0.058236 	4808 	0.057211
34.79 	0.058250 	4824 	0.057400
34.83 	0.054093 	4862 	0.052647
34.87 	0.050123 	4868 	0.049642
34.91 	0.057558 	4882 	0.056459
34.95 	0.058282 	4890 	0.057084
34.99 	0.059016 	4897 	0.058398
35.03 	0.054825 	4943 	0.053995
35.07 	0.049190 	4940 	0.048835
35.11 	0.054174 	4947 	0.053345
35.15 	0.061171 	4937 	0.059609
35.19 	0.058276 	4942 	0.057446
35.23 	0.056623 	4945 	0.056149
35.27 	0.051334 	4948 	0.050742
35.31 	0.054733 	4933 	0.054140
35.35 	0.058276 	4942 	0.056972
35.39 	0.053792 	4945 	0.053081
35.43 	0.067707 	4933 	0.066481
35.47 	0.052119 	4931 	0.051050
35.51 	0.056841 	4926 	0.056366
35.55 	0.051972 	4945 	0.051379
35.59 	0.057634 	4945 	0.056923
35.63 	0.055027 	4943 	0.054435
35.67 	0.052408 	4942 	0.051223
35.71 	0.057930 	4937 	0.056981
35.75 	0.052119 	4931 	0.051169
35.79 	0.051703 	4932 	0.051109
35.83 	0.053781 	4946 	0.053426
35.87 	0.063782 	4923 	0.062949
35.91 	0.055409 	4927 	0.054458
35.95 	0.059182 	4917 	0.058706
35.99 	0.056084 	4939 	0.055135
36.03 	0.053409 	4943 	0.052935
36.07 	0.056489 	4939 	0.056015
36.11 	0.056198 	4929 	0.055247
36.15 	0.056287 	4939 	0.054982
36.19 	0.056073 	4940 	0.055124
36.23 	0.056738 	4935 	0.055432
36.27 	0.058883 	4925 	0.057912
36.31 	0.058442 	4928 	0.057966
36.35 	0.057010 	4929 	0.056296
36.39 	0.064621 	4921 	0.063312
36.43 	0.056615 	4928 	0.055764
36.47 	0.060373 	4936 	0.059423
36.51 	0.057977 	4933 	0.057264
36.55 	0.053176 	4927 	0.052582
36.59 	0.056084 	4939 	0.055610
36.63 	0.060231 	4931 	0.059043
36.67 	0.060649 	4930 	0.059936
36.71 	0.058118 	4921 	0.056908
36.75 	0.059264 	4944 	0.058316
36.79 	0.057305 	4921 	0.056710
36.83 	0.057782 	4915 	0.056829
36.87 	0.051982 	4944 	0.051153
36.91 	0.057478 	4941 	0.056411
36.95 	0.055342 	4933 	0.054392
36.99 	0.057345 	4935 	0.056277
37.03 	0.056864 	4924 	0.055794
37.07 	0.057751 	4935 	0.057039
37.11 	0.060182 	4935 	0.058620
37.15 	0.056427 	4909 	0.055592
37.19 	0.061523 	4925 	0.060571
37.23 	0.058357 	4918 	0.056690
37.27 	0.052309 	4894 	0.051092
37.31 	0.057143 	4935 	0.056193
37.35 	0.061766 	4938 	0.060817
37.39 	0.054350 	4931 	0.053637
37.43 	0.058597 	4932 	0.058122
37.47 	0.057415 	4929 	0.056702
37.51 	0.057977 	4933 	0.056295
37.55 	0.055172 	4930 	0.054222
37.59 	0.055341 	4915 	0.054268
37.63 	0.046351 	4919 	0.045517
37.67 	0.058116 	4904 	0.057280
37.71 	0.057821 	4929 	0.056870
37.75 	0.052834 	4940 	0.051767
37.79 	0.055984 	4930 	0.055033
37.83 	0.052846 	4920 	0.051893
37.87 	0.059931 	4939 	0.058745
37.91 	0.053753 	4930 	0.053158
37.95 	0.059338 	4921 	0.058266
37.99 	0.053135 	4912 	0.052777
38.03 	0.050519 	4909 	0.049803
38.07 	0.061316 	4909 	0.059765
38.11 	0.056332 	4935 	0.055027
38.15 	0.058560 	4918 	0.057727
38.19 	0.052535 	4930 	0.051585
38.23 	0.063791 	4938 	0.062367
38.27 	0.067140 	4930 	0.065595
38.31 	0.069413 	4927 	0.067967
38.35 	0.066356 	4928 	0.064454
38.39 	0.070686 	4909 	0.069851
38.43 	0.074247 	4916 	0.073056
38.47 	0.081312 	4907 	0.079621
38.51 	0.077859 	4932 	0.075840
38.55 	0.086507 	4936 	0.085083
38.59 	0.075345 	4924 	0.074136
38.63 	0.084890 	4924 	0.082630
38.67 	0.075552 	4937 	0.074365
38.71 	0.071080 	4924 	0.069038
38.75 	0.069819 	4927 	0.067898
38.79 	0.069518 	4934 	0.068449
38.83 	0.058548 	4919 	0.057596
38.87 	0.056200 	4911 	0.054869
38.91 	0.060575 	4903 	0.059261
38.95 	0.052664 	4918 	0.052068
38.99 	0.054487 	4937 	0.053636
39.03 	0.053912 	4934 	0.053081
39.07 	0.045085 	4924 	0.044728
39.11 	0.056378 	4931 	0.054952
39.15 	0.047406 	4915 	0.046333
39.19 	0.046573 	4917 	0.045977
39.23 	0.044467 	4925 	0.043753
39.27 	0.043788 	4910 	0.043430
39.31 	0.044636 	4884 	0.044156
39.35 	0.051874 	4935 	0.051043
39.39 	0.045648 	4929 	0.045054
39.43 	0.046219 	4933 	0.045606
39.47 	0.047735 	4923 	0.047259
39.51 	0.048944 	4924 	0.048468
39.55 	0.049400 	4919 	0.048448
39.59 	0.052932 	4912 	0.052097
39.63 	0.046323 	4922 	0.045252
39.67 	0.048239 	4913 	0.048120
39.71 	0.046987 	4895 	0.046029
39.75 	0.046063 	4928 	0.045469
39.79 	0.044661 	4926 	0.043710
39.83 	0.043778 	4934 	0.043303
39.87 	0.043249 	4925 	0.042773
39.91 	0.040837 	4922 	0.039885
39.95 	0.040285 	4915 	0.039689
39.99 	0.041768 	4932 	0.040917
40.03 	0.046672 	4928 	0.046078
40.07 	0.045907 	4923 	0.044955
40.11 	0.042921 	4916 	0.042564
40.15 	0.049461 	4913 	0.049103
40.19 	0.044431 	4929 	0.043718
40.23 	0.042782 	4932 	0.041832
40.27 	0.044967 	4937 	0.044255
40.31 	0.043126 	4939 	0.042770
40.35 	0.039845 	4919 	0.038873
40.39 	0.044818 	4931 	0.044225
40.43 	0.040228 	4922 	0.039751
40.47 	0.045140 	4918 	0.044545
40.51 	0.039821 	4922 	0.039345
40.55 	0.041565 	4908 	0.041207
40.59 	0.045372 	4937 	0.044422
40.63 	0.044422 	4930 	0.043828
40.67 	0.043796 	4932 	0.043321
40.71 	0.036294 	4932 	0.035819
40.75 	0.043602 	4931 	0.043602
40.79 	0.042242 	4924 	0.041766
40.83 	0.043425 	4928 	0.042831
40.87 	0.040584 	4928 	0.039990
40.91 	0.040016 	4923 	0.039183
40.95 	0.038469 	4913 	0.038112
40.99 	0.038993 	4924 	0.038517
41.03 	0.045872 	4905 	0.045274
41.07 	0.037120 	4930 	0.036763
41.11 	0.044377 	4935 	0.044258
41.15 	0.047156 	4941 	0.046327
41.19 	0.042191 	4930 	0.041715
41.23 	0.044746 	4939 	0.044390
41.27 	0.037721 	4931 	0.036869
41.31 	0.038111 	4933 	0.037992
41.35 	0.035642 	4938 	0.035405
41.39 	0.041557 	4933 	0.041201
41.43 	0.047474 	4929 	0.046761
41.47 	0.036338 	4926 	0.035862
41.51 	0.038866 	4940 	0.038273
41.55 	0.042958 	4935 	0.042108
41.59 	0.039935 	4933 	0.039698
41.63 	0.042325 	4938 	0.042206
41.67 	0.042510 	4940 	0.042154
41.71 	0.040738 	4934 	0.040263
41.75 	0.037533 	4929 	0.037176
41.79 	0.041464 	4944 	0.040753
41.83 	0.042208 	4928 	0.041851
41.87 	0.040324 	4935 	0.039849
41.91 	0.037682 	4936 	0.037445
41.95 	0.042385 	4931 	0.042029
41.99 	0.036290 	4905 	0.036170
42.03 	0.042519 	4939 	0.042044
42.07 	0.041118 	4937 	0.040762
42.11 	0.038018 	4945 	0.037663
42.15 	0.035844 	4938 	0.035489
42.19 	0.040139 	4908 	0.039780
42.23 	0.043540 	4892 	0.042942
42.27 	0.036931 	4874 	0.036810
42.31 	0.036869 	4855 	0.036507
42.35 	0.034725 	4838 	0.034362
42.39 	0.039550 	4804 	0.039063
42.43 	0.035476 	4792 	0.034987
42.47 	0.038825 	4765 	0.038190
42.51 	0.039637 	4743 	0.039390
42.55 	0.040569 	4708 	0.039947
42.59 	0.034468 	4729 	0.033973
42.63 	0.044171 	4709 	0.043424
42.67 	0.033945 	4684 	0.033820
42.71 	0.038816 	4663 	0.038314
42.75 	0.035954 	4617 	0.035700
42.79 	0.035356 	4582 	0.035100
42.83 	0.043210 	4536 	0.042048
42.87 	0.038231 	4499 	0.037059
42.91 	0.040844 	4456 	0.040581
42.95 	0.038723 	4416 	0.038192
42.99 	0.035804 	4385 	0.035403
43.03 	0.036926 	4333 	0.036791
43.07 	0.035149 	4296 	0.035149
43.11 	0.037133 	4255 	0.036995
43.15 	0.034712 	4206 	0.034294
43.19 	0.041726 	4194 	0.041307
43.23 	0.042369 	4154 	0.041946
43.27 	0.037759 	4105 	0.037188
43.31 	0.037264 	4079 	0.036690
43.35 	0.043651 	4032 	0.043215
43.39 	0.043478 	4002 	0.042746
43.43 	0.035859 	3960 	0.035563
43.47 	0.039021 	3921 	0.038572
43.51 	0.034047 	3877 	0.033594
43.55 	0.037449 	2964 	0.036856
43.59 	0.035510 	1746 	0.035174
43.63 	0.044955 	1001 	0.044955
43.67 	0.029880 	502 	0.028714
43.71 	0.033473 	239 	0.031022
43.75 	0.187500 	16 	0.150888