Folder: Bessy-II-KMC-II-insitu-sin2psi/Example_Data (part 124)

File: 25SC_s1_0050.000.dat
#F C:\frames\spec\25SC_s1_0050.000
#C title =s:50 frm:0 25SC_s1
#C wavelength =0.15406

#S 1  fr_average C:\frames\spec\25SC_s1_0050.000 C:\win32app\speccom\mask.axs chi 0 180 0 360 0.02
#C 2 theta =0.000000 to 180 deg
#C   q   =0.000000 to 81.568 nm^-1
#C  chi  =0.000000 to 360 deg
#C collumns:
#C  1 position (2theta or chi in degrees)
#C  2 average intensity (sum of all counts in the region divided with number of pixels)
#C  3 Number of pixels in region)
#C  4 error (sum of sqrt(intensity) for all pixels divided by number)
#N 4
#L TTh  Int  N_pix  Err
32.99 	0.049180 	61 	0.049180
33.03 	0.048886 	1391 	0.048886
33.07 	0.062927 	2050 	0.061212
33.11 	0.055836 	2579 	0.055117
33.15 	0.057352 	2999 	0.056376
33.19 	0.060443 	3342 	0.059566
33.23 	0.057054 	3523 	0.056222
33.27 	0.067493 	3630 	0.066041
33.31 	0.059836 	3660 	0.058369
33.35 	0.058744 	3694 	0.057951
33.39 	0.057656 	3729 	0.056059
33.43 	0.061420 	3761 	0.060330
33.47 	0.063454 	3798 	0.062375
33.51 	0.062385 	3815 	0.061003
33.55 	0.057767 	3843 	0.056980
33.59 	0.055155 	3880 	0.054400
33.63 	0.058433 	3919 	0.057063
33.67 	0.060192 	3954 	0.059600
33.71 	0.054340 	3975 	0.053455
33.75 	0.057014 	3999 	0.055842
33.79 	0.059886 	4041 	0.058437
33.83 	0.059259 	4050 	0.057958
33.87 	0.051812 	4111 	0.050957
33.91 	0.060738 	4149 	0.059749
33.95 	0.062664 	4181 	0.061964
33.99 	0.055000 	4200 	0.054163
34.03 	0.058907 	4244 	0.057941
34.07 	0.058107 	4268 	0.057283
34.11 	0.054626 	4302 	0.052992
34.15 	0.061879 	4331 	0.061338
34.19 	0.056396 	4362 	0.055725
34.23 	0.054860 	4393 	0.053793
34.27 	0.063320 	4422 	0.062260
34.31 	0.052490 	4458 	0.051439
34.35 	0.058653 	4484 	0.058000
34.39 	0.055531 	4502 	0.054620
34.43 	0.058824 	4539 	0.057791
34.47 	0.052700 	4592 	0.052063
34.51 	0.058402 	4606 	0.057766
34.55 	0.053414 	4643 	0.052510
34.59 	0.047059 	4675 	0.046307
34.63 	0.057325 	4710 	0.055812
34.67 	0.049146 	4741 	0.048404
34.71 	0.054763 	4766 	0.053391
34.75 	0.058236 	4808 	0.057120
34.79 	0.058043 	4824 	0.057315
34.83 	0.054504 	4862 	0.053661
34.87 	0.061832 	4868 	0.060629
34.91 	0.057558 	4882 	0.056579
34.95 	0.055624 	4890 	0.054426
34.99 	0.060649 	4897 	0.060051
35.03 	0.056039 	4943 	0.055091
35.07 	0.062146 	4940 	0.061079
35.11 	0.056600 	4947 	0.056008
35.15 	0.056309 	4937 	0.054886
35.19 	0.057062 	4942 	0.055620
35.23 	0.060465 	4945 	0.058669
35.27 	0.057195 	4948 	0.056484
35.31 	0.060004 	4933 	0.058342
35.35 	0.052610 	4942 	0.051543
35.39 	0.058645 	4945 	0.057816
35.43 	0.059599 	4933 	0.057817
35.47 	0.059217 	4931 	0.057792
35.51 	0.060698 	4926 	0.059628
35.55 	0.062892 	4945 	0.061826
35.59 	0.059252 	4945 	0.058541
35.63 	0.059276 	4943 	0.057716
35.67 	0.060704 	4942 	0.059637
35.71 	0.059955 	4937 	0.059481
35.75 	0.059420 	4931 	0.058232
35.79 	0.059205 	4932 	0.058136
35.83 	0.057016 	4946 	0.056424
35.87 	0.053220 	4923 	0.052506
35.91 	0.060889 	4927 	0.060413
35.95 	0.064267 	4917 	0.063075
35.99 	0.056894 	4939 	0.055945
36.03 	0.055634 	4943 	0.054568
36.07 	0.062158 	4939 	0.060972
36.11 	0.057821 	4929 	0.057227
36.15 	0.060539 	4939 	0.059214
36.19 	0.051417 	4940 	0.050824
36.23 	0.058967 	4935 	0.058254
36.27 	0.063756 	4925 	0.062191
36.31 	0.058644 	4928 	0.057575
36.35 	0.064110 	4929 	0.062684
36.39 	0.057712 	4921 	0.056283
36.43 	0.056006 	4928 	0.055056
36.47 	0.065032 	4936 	0.064439
36.51 	0.060612 	4933 	0.059900
36.55 	0.056424 	4927 	0.055829
36.59 	0.058716 	4939 	0.058005
36.63 	0.059623 	4931 	0.058910
36.67 	0.058215 	4930 	0.057264
36.71 	0.058728 	4921 	0.058014
36.75 	0.062095 	4944 	0.061266
36.79 	0.051616 	4921 	0.050663
36.83 	0.061851 	4915 	0.060540
36.87 	0.059466 	4944 	0.058874
36.91 	0.057276 	4941 	0.056683
36.95 	0.053517 	4933 	0.052923
36.99 	0.060790 	4935 	0.059841
37.03 	0.059504 	4924 	0.058077
37.07 	0.057953 	4935 	0.056766
37.11 	0.053901 	4935 	0.052951
37.15 	0.062334 	4909 	0.060903
37.19 	0.059289 	4925 	0.058814
37.23 	0.060797 	4918 	0.060321
37.27 	0.058439 	4894 	0.057601
37.31 	0.059574 	4935 	0.057399
37.35 	0.057108 	4938 	0.056377
37.39 	0.058609 	4931 	0.057896
37.43 	0.057989 	4932 	0.056801
37.47 	0.058430 	4929 	0.057598
37.51 	0.055747 	4933 	0.054797
37.55 	0.058418 	4930 	0.057824
37.59 	0.054934 	4915 	0.054219
37.63 	0.059362 	4919 	0.058766
37.67 	0.061582 	4904 	0.060607
37.71 	0.062690 	4929 	0.061621
37.75 	0.058907 	4940 	0.057958
37.79 	0.063286 	4930 	0.061860
37.83 	0.056504 	4920 	0.055909
37.87 	0.057704 	4939 	0.056755
37.91 	0.058621 	4930 	0.057789
37.95 	0.057712 	4921 	0.056998
37.99 	0.057003 	4912 	0.056049
38.03 	0.058057 	4909 	0.057579
38.07 	0.056223 	4909 	0.055269
38.11 	0.052482 	4935 	0.051295
38.15 	0.056324 	4918 	0.055013
38.19 	0.062677 	4930 	0.061727
38.23 	0.071486 	4938 	0.069944
38.27 	0.067546 	4930 	0.067189
38.31 	0.076314 	4927 	0.074887
38.35 	0.081981 	4928 	0.079841
38.39 	0.081076 	4909 	0.080121
38.43 	0.080146 	4916 	0.078240
38.47 	0.078663 	4907 	0.077350
38.51 	0.085969 	4932 	0.084306
38.55 	0.081037 	4936 	0.078901
38.59 	0.078595 	4924 	0.076910
38.63 	0.079407 	4924 	0.077623
38.67 	0.067652 	4937 	0.066941
38.71 	0.065191 	4924 	0.064596
38.75 	0.064948 	4927 	0.063759
38.79 	0.058573 	4934 	0.056792
38.83 	0.058142 	4919 	0.057427
38.87 	0.044797 	4911 	0.044320
38.91 	0.052417 	4903 	0.051820
38.95 	0.050224 	4918 	0.049132
38.99 	0.049018 	4937 	0.048424
39.03 	0.046210 	4934 	0.045735
39.07 	0.042851 	4924 	0.042494
39.11 	0.051714 	4931 	0.051357
39.15 	0.049440 	4915 	0.048487
39.19 	0.055318 	4917 	0.054584
39.23 	0.049949 	4925 	0.049711
39.27 	0.046232 	4910 	0.045397
39.31 	0.047502 	4884 	0.047022
39.35 	0.043161 	4935 	0.042330
39.39 	0.043011 	4929 	0.042278
39.43 	0.043787 	4933 	0.043193
39.47 	0.045501 	4923 	0.045144
39.51 	0.040820 	4924 	0.040464
39.55 	0.042285 	4919 	0.041690
39.59 	0.045195 	4912 	0.044599
39.63 	0.045104 	4922 	0.044628
39.67 	0.050885 	4913 	0.050170
39.71 	0.042901 	4895 	0.042403
39.75 	0.042005 	4928 	0.041411
39.79 	0.042022 	4926 	0.041427
39.83 	0.044589 	4934 	0.044114
39.87 	0.047716 	4925 	0.047478
39.91 	0.045510 	4922 	0.044796
39.95 	0.045371 	4915 	0.044656
39.99 	0.045012 	4932 	0.044418
40.03 	0.043831 	4928 	0.043593
40.07 	0.037376 	4923 	0.036781
40.11 	0.043124 	4916 	0.042767
40.15 	0.041522 	4913 	0.040926
40.19 	0.041996 	4929 	0.041283
40.23 	0.047851 	4932 	0.047019
40.27 	0.044764 	4937 	0.044645
40.31 	0.039279 	4939 	0.038923
40.35 	0.043301 	4919 	0.042706
40.39 	0.039546 	4931 	0.038576
40.43 	0.041243 	4922 	0.040172
40.47 	0.039854 	4918 	0.039238
40.51 	0.038602 	4922 	0.038483
40.55 	0.039527 	4908 	0.039289
40.59 	0.039903 	4937 	0.039784
40.63 	0.044219 	4930 	0.043625
40.67 	0.045620 	4932 	0.045264
40.71 	0.044201 	4932 	0.043370
40.75 	0.045021 	4931 	0.044427
40.79 	0.045085 	4924 	0.044609
40.83 	0.044440 	4928 	0.043608
40.87 	0.045049 	4928 	0.044692
40.91 	0.043876 	4923 	0.043638
40.95 	0.047018 	4913 	0.046899
40.99 	0.041633 	4924 	0.041276
41.03 	0.041998 	4905 	0.041401
41.07 	0.040162 	4930 	0.039331
41.11 	0.039311 	4935 	0.038718
41.15 	0.039668 	4941 	0.039075
41.19 	0.039959 	4930 	0.039247
41.23 	0.042316 	4939 	0.042198
41.27 	0.045427 	4931 	0.044595
41.31 	0.044598 	4933 	0.044004
41.35 	0.040907 	4938 	0.040314
41.39 	0.040949 	4933 	0.040474
41.43 	0.046257 	4929 	0.046019
41.47 	0.040195 	4926 	0.039957
41.51 	0.043725 	4940 	0.043013
41.55 	0.042553 	4935 	0.041960
41.59 	0.042570 	4933 	0.042214
41.63 	0.035844 	4938 	0.035133
41.67 	0.035020 	4940 	0.034427
41.71 	0.039116 	4934 	0.038641
41.75 	0.045242 	4929 	0.044767
41.79 	0.034790 	4944 	0.034671
41.83 	0.037744 	4928 	0.037387
41.87 	0.041135 	4935 	0.040897
41.91 	0.047002 	4936 	0.046527
41.95 	0.038532 	4931 	0.037938
41.99 	0.038532 	4905 	0.038174
42.03 	0.038469 	4939 	0.038114
42.07 	0.042739 	4937 	0.042383
42.11 	0.043074 	4945 	0.042718
42.15 	0.041110 	4938 	0.040873
42.19 	0.035656 	4908 	0.035298
42.23 	0.040474 	4892 	0.039377
42.27 	0.039393 	4874 	0.038431
42.31 	0.035633 	4855 	0.035392
42.35 	0.040099 	4838 	0.039736
42.39 	0.040591 	4804 	0.040347
42.43 	0.037145 	4792 	0.036656
42.47 	0.043442 	4765 	0.042704
42.51 	0.037740 	4743 	0.037246
42.55 	0.039720 	4708 	0.039222
42.59 	0.033411 	4729 	0.032915
42.63 	0.035676 	4709 	0.035552
42.67 	0.039283 	4684 	0.038887
42.71 	0.037958 	4663 	0.037582
42.75 	0.035737 	4617 	0.035230
42.79 	0.042340 	4582 	0.041700
42.83 	0.038580 	4536 	0.038064
42.87 	0.040009 	4499 	0.039748
42.91 	0.039946 	4456 	0.039683
42.95 	0.037364 	4416 	0.037364
42.99 	0.037856 	4385 	0.037723
43.03 	0.040619 	4333 	0.040348
43.07 	0.035382 	4296 	0.035382
43.11 	0.036428 	4255 	0.036428
43.15 	0.039943 	4206 	0.039247
43.19 	0.037673 	4194 	0.037394
43.23 	0.036832 	4154 	0.035986
43.27 	0.036297 	4105 	0.036012
43.31 	0.037509 	4079 	0.036935
43.35 	0.037698 	4032 	0.037117
43.39 	0.036482 	4002 	0.036043
43.43 	0.030303 	3960 	0.030007
43.47 	0.038766 	3921 	0.038616
43.51 	0.043848 	3877 	0.043395
43.55 	0.041835 	2964 	0.041242
43.59 	0.036082 	1746 	0.036082
43.63 	0.031968 	1001 	0.030798
43.67 	0.045817 	502 	0.045817
43.71 	0.046025 	239 	0.046025
43.75 	0.000000 	16 	0.000000

File: 25SC_s1_0050.001.dat
#F C:\frames\spec\25SC_s1_0050.001
#C title =s:50 frm:1 25SC_s1
#C wavelength =0.15406

#S 1  fr_average C:\frames\spec\25SC_s1_0050.001 C:\win32app\speccom\mask.axs chi 0 180 0 360 0.02
#C 2 theta =0.000000 to 180 deg
#C   q   =0.000000 to 81.568 nm^-1
#C  chi  =0.000000 to 360 deg
#C collumns:
#C  1 position (2theta or chi in degrees)
#C  2 average intensity (sum of all counts in the region divided with number of pixels)
#C  3 Number of pixels in region)
#C  4 error (sum of sqrt(intensity) for all pixels divided by number)
#N 4
#L TTh  Int  N_pix  Err
32.99 	0.065574 	61 	0.065574
33.03 	0.058950 	1391 	0.058529
33.07 	0.056585 	2050 	0.056014
33.11 	0.062040 	2579 	0.061358
33.15 	0.051684 	2999 	0.050707
33.19 	0.054159 	3342 	0.052932
33.23 	0.061879 	3523 	0.061048
33.27 	0.061157 	3630 	0.060189
33.31 	0.062295 	3660 	0.061495
33.35 	0.060639 	3694 	0.059687
33.39 	0.059802 	3729 	0.058859
33.43 	0.058229 	3761 	0.057450
33.47 	0.061085 	3798 	0.060159
33.51 	0.058453 	3815 	0.057532
33.55 	0.055946 	3843 	0.055184
33.59 	0.059278 	3880 	0.058825
33.63 	0.058433 	3919 	0.057686
33.67 	0.058169 	3954 	0.056687
33.71 	0.057107 	3975 	0.055781
33.75 	0.059015 	3999 	0.057989
33.79 	0.057906 	4041 	0.057037
33.83 	0.055556 	4050 	0.055266
33.87 	0.059353 	4111 	0.057786
33.91 	0.058086 	4149 	0.057380
33.95 	0.062664 	4181 	0.061403
33.99 	0.057381 	4200 	0.057102
34.03 	0.055372 	4244 	0.054682
34.07 	0.056232 	4268 	0.055272
34.11 	0.063459 	4302 	0.061802
34.15 	0.051951 	4331 	0.051275
34.19 	0.048602 	4362 	0.048064
34.23 	0.058502 	4393 	0.057835
34.27 	0.056309 	4422 	0.055117
34.31 	0.050247 	4458 	0.049590
34.35 	0.054193 	4484 	0.053409
34.39 	0.056419 	4502 	0.055248
34.43 	0.060586 	4539 	0.059812
34.47 	0.055314 	4592 	0.054548
34.51 	0.052106 	4606 	0.050940
34.55 	0.057291 	4643 	0.056660
34.59 	0.057968 	4675 	0.057341
34.63 	0.050743 	4710 	0.049873
34.67 	0.060536 	4741 	0.059794
34.71 	0.048468 	4766 	0.047362
34.75 	0.060732 	4808 	0.059757
34.79 	0.054726 	4824 	0.053755
34.83 	0.052242 	4862 	0.051037
34.87 	0.057724 	4868 	0.057243
34.91 	0.049570 	4882 	0.049090
34.95 	0.055828 	4890 	0.055589
34.99 	0.052073 	4897 	0.051355
35.03 	0.055027 	4943 	0.054316
35.07 	0.058704 	4940 	0.057262
35.11 	0.055589 	4947 	0.054524
35.15 	0.058538 	4937 	0.057351
35.19 	0.053622 	4942 	0.053148
35.23 	0.065521 	4945 	0.064218
35.27 	0.055982 	4948 	0.055390
35.31 	0.061423 	4933 	0.060948
35.35 	0.055848 	4942 	0.054781
35.39 	0.064712 	4945 	0.063646
35.43 	0.055544 	4933 	0.054476
35.47 	0.051511 	4931 	0.051036
35.51 	0.061104 	4926 	0.060510
35.55 	0.058038 	4945 	0.057565
35.59 	0.052983 	4945 	0.052272
35.63 	0.054420 	4943 	0.052998
35.67 	0.057669 	4942 	0.056602
35.71 	0.058538 	4937 	0.057944
35.75 	0.058000 	4931 	0.056931
35.79 	0.062247 	4932 	0.060821
35.83 	0.057420 	4946 	0.056453
35.87 	0.056876 	4923 	0.055666
35.91 	0.052770 	4927 	0.052176
35.95 	0.058369 	4917 	0.057416
35.99 	0.056489 	4939 	0.055422
36.03 	0.063524 	4943 	0.062695
36.07 	0.056692 	4939 	0.055861
36.11 	0.056401 	4929 	0.054975
36.15 	0.058514 	4939 	0.058158
36.19 	0.061943 	4940 	0.061232
36.23 	0.055319 	4935 	0.054488
36.27 	0.058680 	4925 	0.057372
36.31 	0.060268 	4928 	0.059198
36.35 	0.058835 	4929 	0.057528
36.39 	0.056289 	4921 	0.055575
36.43 	0.049919 	4928 	0.049087
36.47 	0.059765 	4936 	0.059053
36.51 	0.058585 	4933 	0.057378
36.55 	0.062716 	4927 	0.061170
36.59 	0.059324 	4939 	0.058375
36.63 	0.062056 	4931 	0.060631
36.67 	0.061258 	4930 	0.059951
36.71 	0.054867 	4921 	0.053557
36.75 	0.057241 	4944 	0.055938
36.79 	0.055883 	4921 	0.054812
36.83 	0.055748 	4915 	0.055152
36.87 	0.057241 	4944 	0.056293
36.91 	0.058693 	4941 	0.057981
36.95 	0.053112 	4933 	0.052637
36.99 	0.058561 	4935 	0.057711
37.03 	0.058489 	4924 	0.057656
37.07 	0.055724 	4935 	0.054656
37.11 	0.053293 	4935 	0.051849
37.15 	0.061520 	4909 	0.060565
37.19 	0.055838 	4925 	0.054014
37.23 	0.058560 	4918 	0.057369
37.27 	0.061095 	4894 	0.059779
37.31 	0.053698 	4935 	0.053223
37.35 	0.051438 	4938 	0.050370
37.39 	0.055770 	4931 	0.054819
37.43 	0.054947 	4932 	0.054116
37.47 	0.056198 	4929 	0.055247
37.51 	0.055139 	4933 	0.054189
37.55 	0.060041 	4930 	0.059209
37.59 	0.054934 	4915 	0.054100
37.63 	0.053263 	4919 	0.052171
37.67 	0.059543 	4904 	0.058110
37.71 	0.060256 	4929 	0.059543
37.75 	0.056073 	4940 	0.054393
37.79 	0.053347 	4930 	0.052258
37.83 	0.050610 	4920 	0.049657
37.87 	0.057299 	4939 	0.056350
37.91 	0.054361 	4930 	0.053054
37.95 	0.051819 	4921 	0.051224
37.99 	0.058428 	4912 	0.057594
38.03 	0.056223 	4909 	0.055627
38.07 	0.054186 	4909 	0.053112
38.11 	0.056738 	4935 	0.055669
38.15 	0.062830 	4918 	0.060925
38.19 	0.053347 	4930 	0.052515
38.23 	0.062778 	4938 	0.061118
38.27 	0.065923 	4930 	0.064497
38.31 	0.073676 	4927 	0.071536
38.35 	0.068791 	4928 	0.067840
38.39 	0.074353 	4909 	0.072802
38.43 	0.068755 	4916 	0.067921
38.47 	0.080701 	4907 	0.078771
38.51 	0.074615 	4932 	0.073071
38.55 	0.070908 	4936 	0.069484
38.59 	0.068440 	4924 	0.066180
38.63 	0.070877 	4924 	0.069688
38.67 	0.065019 	4937 	0.063477
38.71 	0.059911 	4924 	0.059197
38.75 	0.056627 	4927 	0.055794
38.79 	0.056952 	4934 	0.055408
38.83 	0.051027 	4919 	0.050074
38.87 	0.049481 	4911 	0.048407
38.91 	0.048950 	4903 	0.048233
38.95 	0.051240 	4918 	0.050883
38.99 	0.047802 	4937 	0.047209
39.03 	0.047021 	4934 	0.046427
39.07 	0.047116 	4924 	0.046759
39.11 	0.042182 	4931 	0.041826
39.15 	0.049237 	4915 	0.048641
39.19 	0.048200 	4917 	0.047843
39.23 	0.042843 	4925 	0.042228
39.27 	0.047454 	4910 	0.046619
39.31 	0.046274 	4884 	0.045674
39.35 	0.042148 	4935 	0.041554
39.39 	0.044025 	4929 	0.043550
39.43 	0.048247 	4933 	0.048009
39.47 	0.048751 	4923 	0.048275
39.51 	0.049756 	4924 	0.049280
39.55 	0.044725 	4919 	0.044486
39.59 	0.045399 	4912 	0.044902
39.63 	0.047135 	4922 	0.046402
39.67 	0.042133 	4913 	0.041656
39.71 	0.044535 	4895 	0.044176
39.75 	0.042208 	4928 	0.041495
39.79 	0.049939 	4926 	0.048988
39.83 	0.045805 	4934 	0.045567
39.87 	0.038782 	4925 	0.038425
39.91 	0.047135 	4922 	0.046540
39.95 	0.045575 	4915 	0.044621
39.99 	0.044201 	4932 	0.043489
40.03 	0.041396 	4928 	0.041277
40.07 	0.040829 	4923 	0.040353
40.11 	0.043938 	4916 	0.043342
40.15 	0.043354 	4913 	0.042877
40.19 	0.040779 	4929 	0.039828
40.23 	0.042174 	4932 	0.041580
40.27 	0.047600 	4937 	0.046888
40.31 	0.044341 	4939 	0.043867
40.35 	0.041472 	4919 	0.040400
40.39 	0.044210 	4931 	0.043616
40.43 	0.045104 	4922 	0.044509
40.47 	0.046360 	4918 	0.045646
40.51 	0.045916 	4922 	0.045202
40.55 	0.042380 	4908 	0.041544
40.59 	0.042536 	4937 	0.041686
40.63 	0.039959 	4930 	0.039365
40.67 	0.044201 	4932 	0.043845
40.71 	0.043187 	4932 	0.042356
40.75 	0.041574 	4931 	0.040980
40.79 	0.040617 	4924 	0.040023
40.83 	0.042005 	4928 	0.041173
40.87 	0.043222 	4928 	0.042390
40.91 	0.043469 	4923 	0.043231
40.95 	0.037655 	4913 	0.036821
40.99 	0.039602 	4924 	0.039245
41.03 	0.044241 	4905 	0.043882
41.07 	0.042394 	4930 	0.041681
41.11 	0.042553 	4935 	0.042197
41.15 	0.036632 	4941 	0.036514
41.19 	0.042799 	4930 	0.042443
41.23 	0.044948 	4939 	0.044593
41.27 	0.043805 	4931 	0.043211
41.31 	0.040746 	4933 	0.040152
41.35 	0.040300 	4938 	0.039588
41.39 	0.041760 	4933 	0.041166
41.43 	0.037533 	4929 	0.037295
41.47 	0.042631 	4926 	0.042512
41.51 	0.047368 	4940 	0.046894
41.55 	0.042351 	4935 	0.041757
41.59 	0.039935 	4933 	0.039460
41.63 	0.039895 	4938 	0.039539
41.67 	0.039474 	4940 	0.038861
41.71 	0.042156 	4934 	0.041563
41.75 	0.041591 	4929 	0.041472
41.79 	0.041060 	4944 	0.040823
41.83 	0.038758 	4928 	0.038164
41.87 	0.034853 	4935 	0.034497
41.91 	0.038493 	4936 	0.038493
41.95 	0.035895 	4931 	0.035420
41.99 	0.038736 	4905 	0.038258
42.03 	0.039887 	4939 	0.039531
42.07 	0.039700 	4937 	0.039344
42.11 	0.039232 	4945 	0.038639
42.15 	0.038680 	4938 	0.038324
42.19 	0.037286 	4908 	0.036928
42.23 	0.040679 	4892 	0.040200
42.27 	0.037957 	4874 	0.037456
42.31 	0.038105 	4855 	0.037622
42.35 	0.037412 	4838 	0.036807
42.39 	0.036220 	4804 	0.036098
42.43 	0.039023 	4792 	0.038290
42.47 	0.041973 	4765 	0.041481
42.51 	0.035631 	4743 	0.035137
42.55 	0.040357 	4708 	0.039859
42.59 	0.039966 	4729 	0.039223
42.63 	0.040773 	4709 	0.040275
42.67 	0.039710 	4684 	0.039209
42.71 	0.040746 	4663 	0.040495
42.75 	0.038553 	4617 	0.038173
42.79 	0.042340 	4582 	0.041956
42.83 	0.037919 	4536 	0.037144
42.87 	0.043121 	4499 	0.042860
42.91 	0.037926 	4456 	0.037663
42.95 	0.038949 	4416 	0.038551
42.99 	0.042417 	4385 	0.041349
43.03 	0.037387 	4333 	0.036847
43.07 	0.039804 	4296 	0.039259
43.11 	0.039013 	4255 	0.038462
43.15 	0.038279 	4206 	0.038279
43.19 	0.036481 	4194 	0.035922
43.23 	0.036351 	4154 	0.035927
43.27 	0.041413 	4105 	0.040699
43.31 	0.038245 	4079 	0.038101
43.35 	0.043403 	4032 	0.042676
43.39 	0.037731 	4002 	0.037585
43.43 	0.040909 	3960 	0.040761
43.47 	0.032900 	3921 	0.032452
43.51 	0.041527 	3877 	0.041074
43.55 	0.036437 	2964 	0.036240
43.59 	0.029782 	1746 	0.029447
43.63 	0.028971 	1001 	0.028971
43.67 	0.039841 	502 	0.038674
43.71 	0.062762 	239 	0.057860
43.75 	0.000000 	16 	0.000000