Folder: Bessy-II-KMC-II-insitu-sin2psi/Example_Data (part 8)

File: 25SC_s1_0003.003.dat
#F C:\frames\spec\25SC_s1_0003.003
#C title =s:3 frm:3 25SC_s1
#C wavelength =0.15406

#S 1  fr_average C:\frames\spec\25SC_s1_0003.003 C:\win32app\speccom\mask.axs chi 0 180 0 360 0.02
#C 2 theta =0.000000 to 180 deg
#C   q   =0.000000 to 81.568 nm^-1
#C  chi  =0.000000 to 360 deg
#C collumns:
#C  1 position (2theta or chi in degrees)
#C  2 average intensity (sum of all counts in the region divided with number of pixels)
#C  3 Number of pixels in region)
#C  4 error (sum of sqrt(intensity) for all pixels divided by number)
#N 4
#L TTh  Int  N_pix  Err
32.99 	0.032787 	61 	0.032787
33.03 	0.065421 	1391 	0.064999
33.07 	0.074634 	2050 	0.073491
33.11 	0.064366 	2579 	0.063912
33.15 	0.066355 	2999 	0.065379
33.19 	0.061341 	3342 	0.059938
33.23 	0.059324 	3523 	0.058327
33.27 	0.062810 	3630 	0.060712
33.31 	0.057923 	3660 	0.057123
33.35 	0.055495 	3694 	0.054227
33.39 	0.064360 	3729 	0.062947
33.43 	0.059825 	3761 	0.058734
33.47 	0.062401 	3798 	0.060859
33.51 	0.062123 	3815 	0.060588
33.55 	0.066094 	3843 	0.064875
33.59 	0.054639 	3880 	0.053280
33.63 	0.064812 	3919 	0.063467
33.67 	0.065250 	3954 	0.063448
33.71 	0.063899 	3975 	0.062720
33.75 	0.052013 	3999 	0.050841
33.79 	0.057906 	4041 	0.057037
33.83 	0.061481 	4050 	0.060614
33.87 	0.061299 	4111 	0.059589
33.91 	0.059291 	4149 	0.058585
33.95 	0.061229 	4181 	0.060669
33.99 	0.064524 	4200 	0.062990
34.03 	0.067389 	4244 	0.066423
34.07 	0.062324 	4268 	0.060792
34.11 	0.059275 	4302 	0.058185
34.15 	0.060263 	4331 	0.058911
34.19 	0.060752 	4362 	0.059118
34.23 	0.058502 	4393 	0.057702
34.27 	0.060154 	4422 	0.058299
34.31 	0.057873 	4458 	0.057085
34.35 	0.057984 	4484 	0.055632
34.39 	0.059751 	4502 	0.058580
34.43 	0.053316 	4539 	0.051896
34.47 	0.060105 	4592 	0.059212
34.51 	0.059053 	4606 	0.057909
34.55 	0.058152 	4643 	0.056764
34.59 	0.055401 	4675 	0.054378
34.63 	0.059023 	4710 	0.058153
34.67 	0.060958 	4741 	0.059969
34.71 	0.060848 	4766 	0.060110
34.75 	0.050541 	4808 	0.049079
34.79 	0.060323 	4824 	0.059473
34.83 	0.061703 	4862 	0.060619
34.87 	0.065119 	4868 	0.063535
34.91 	0.059607 	4882 	0.058887
34.95 	0.064008 	4890 	0.063170
34.99 	0.063100 	4897 	0.062143
35.03 	0.057657 	4943 	0.056828
35.07 	0.060121 	4940 	0.059410
35.11 	0.060441 	4947 	0.059612
35.15 	0.060361 	4937 	0.059649
35.19 	0.054634 	4942 	0.053923
35.23 	0.065116 	4945 	0.063813
35.27 	0.064470 	4948 	0.063168
35.31 	0.058990 	4933 	0.058040
35.35 	0.059895 	4942 	0.058947
35.39 	0.062083 	4945 	0.061017
35.43 	0.062031 	4933 	0.060725
35.47 	0.062665 	4931 	0.061358
35.51 	0.057044 	4926 	0.056331
35.55 	0.064914 	4945 	0.064322
35.59 	0.061274 	4945 	0.060326
35.63 	0.061703 	4943 	0.060281
35.67 	0.065358 	4942 	0.063936
35.71 	0.058538 	4937 	0.057232
35.75 	0.060231 	4931 	0.059281
35.79 	0.064680 	4932 	0.063492
35.83 	0.055803 	4946 	0.054974
35.87 	0.061954 	4923 	0.060745
35.91 	0.056627 	4927 	0.055775
35.95 	0.057352 	4917 	0.056518
35.99 	0.058919 	4939 	0.057832
36.03 	0.056241 	4943 	0.055056
36.07 	0.058514 	4939 	0.057446
36.11 	0.058633 	4929 	0.057682
36.15 	0.060741 	4939 	0.059199
36.19 	0.059312 	4940 	0.057375
36.23 	0.055724 	4935 	0.055368
36.27 	0.065178 	4925 	0.063850
36.31 	0.058847 	4928 	0.058253
36.35 	0.070197 	4929 	0.068632
36.39 	0.067669 	4921 	0.066003
36.43 	0.064123 	4928 	0.062578
36.47 	0.057536 	4936 	0.056350
36.51 	0.060815 	4933 	0.059984
36.55 	0.060889 	4927 	0.060057
36.59 	0.061551 	4939 	0.060602
36.63 	0.059217 	4931 	0.057297
36.67 	0.057606 	4930 	0.056280
36.71 	0.057102 	4921 	0.056269
36.75 	0.061489 	4944 	0.060778
36.79 	0.060557 	4921 	0.059128
36.83 	0.059207 	4915 	0.058015
36.87 	0.057443 	4944 	0.056022
36.91 	0.054240 	4941 	0.053410
36.95 	0.065680 	4933 	0.064611
36.99 	0.057953 	4935 	0.057004
37.03 	0.056661 	4924 	0.055947
37.07 	0.062411 	4935 	0.061462
37.11 	0.058359 	4935 	0.057765
37.15 	0.060501 	4909 	0.059546
37.19 	0.052183 	4925 	0.051231
37.23 	0.060797 	4918 	0.059368
37.27 	0.056804 	4894 	0.055847
37.31 	0.050861 	4935 	0.050030
37.35 	0.061158 	4938 	0.060447
37.39 	0.051511 	4931 	0.051036
37.43 	0.059813 	4932 	0.059220
37.47 	0.060256 	4929 	0.059067
37.51 	0.054733 	4933 	0.053645
37.55 	0.051927 	4930 	0.050858
37.59 	0.050865 	4915 	0.050388
37.63 	0.051840 	4919 	0.050887
37.67 	0.056688 	4904 	0.055613
37.71 	0.057415 	4929 	0.056346
37.75 	0.057692 	4940 	0.056862
37.79 	0.052535 	4930 	0.052179
37.83 	0.056504 	4920 	0.055552
37.87 	0.051427 	4939 	0.050716
37.91 	0.049696 	4930 	0.049339
37.95 	0.058728 	4921 	0.057538
37.99 	0.051099 	4912 	0.050622
38.03 	0.057038 	4909 	0.055845
38.07 	0.052353 	4909 	0.051637
38.11 	0.054914 	4935 	0.054439
38.15 	0.052054 	4918 	0.051696
38.19 	0.056795 	4930 	0.056201
38.23 	0.054881 	4938 	0.054050
38.27 	0.055984 	4930 	0.054776
38.31 	0.057642 	4927 	0.057047
38.35 	0.058036 	4928 	0.057184
38.39 	0.067631 	4909 	0.066796
38.43 	0.060212 	4916 	0.059497
38.47 	0.063379 	4907 	0.061807
38.51 	0.061841 	4932 	0.061010
38.55 	0.067261 	4936 	0.066173
38.59 	0.059708 	4924 	0.058518
38.63 	0.061942 	4924 	0.060752
38.67 	0.058740 	4937 	0.057297
38.71 	0.058286 	4924 	0.057334
38.75 	0.055612 	4927 	0.054899
38.79 	0.055533 	4934 	0.054702
38.83 	0.051637 	4919 	0.051041
38.87 	0.056608 	4911 	0.055773
38.91 	0.053233 	4903 	0.052157
38.95 	0.052867 	4918 	0.052271
38.99 	0.050435 	4937 	0.050080
39.03 	0.046007 	4934 	0.045532
39.07 	0.051381 	4924 	0.050191
39.11 	0.049888 	4931 	0.049057
39.15 	0.050661 	4915 	0.049469
39.19 	0.045149 	4917 	0.044554
39.23 	0.051980 	4925 	0.050790
39.27 	0.052138 	4910 	0.050807
39.31 	0.044840 	4884 	0.044480
39.35 	0.049240 	4935 	0.048884
39.39 	0.051532 	4929 	0.051056
39.43 	0.050882 	4933 	0.050169
39.47 	0.042048 	4923 	0.041453
39.51 	0.052396 	4924 	0.051564
39.55 	0.056109 	4919 	0.055633
39.59 	0.044992 	4912 	0.044396
39.63 	0.053230 	4922 	0.052040
39.67 	0.061470 	4913 	0.060516
39.71 	0.047804 	4895 	0.047565
39.75 	0.045049 	4928 	0.043979
39.79 	0.047097 	4926 	0.046007
39.83 	0.053101 	4934 	0.052626
39.87 	0.052386 	4925 	0.051315
39.91 	0.046729 	4922 	0.046491
39.95 	0.049237 	4915 	0.048760
39.99 	0.050081 	4932 	0.049487
40.03 	0.049919 	4928 	0.048849
40.07 	0.048751 	4923 	0.048275
40.11 	0.052889 	4916 	0.052035
40.15 	0.048443 	4913 	0.047966
40.19 	0.043619 	4929 	0.043382
40.23 	0.049473 	4932 	0.049117
40.27 	0.046587 	4937 	0.045875
40.31 	0.050010 	4939 	0.049536
40.35 	0.050010 	4919 	0.049534
40.39 	0.045832 	4931 	0.045239
40.43 	0.047948 	4922 	0.047234
40.47 	0.050630 	4918 	0.049797
40.51 	0.044088 	4922 	0.043136
40.55 	0.047881 	4908 	0.046787
40.59 	0.047195 	4937 	0.046720
40.63 	0.042394 	4930 	0.041780
40.67 	0.052109 	4932 	0.051634
40.71 	0.049676 	4932 	0.049082
40.75 	0.045630 	4931 	0.045036
40.79 	0.051178 	4924 	0.050821
40.83 	0.048701 	4928 	0.047988
40.87 	0.044846 	4928 	0.043776
40.91 	0.047938 	4923 	0.047581
40.95 	0.045593 	4913 	0.045116
40.99 	0.045085 	4924 	0.044490
41.03 	0.048930 	4905 	0.048810
41.07 	0.046856 	4930 	0.046618
41.11 	0.041945 	4935 	0.041470
41.15 	0.038251 	4941 	0.037777
41.19 	0.043408 	4930 	0.043051
41.23 	0.047580 	4939 	0.046987
41.27 	0.045832 	4931 	0.044724
41.31 	0.042773 	4933 	0.042417
41.35 	0.048603 	4938 	0.047891
41.39 	0.046017 	4933 	0.045660
41.43 	0.044837 	4929 	0.044718
41.47 	0.050142 	4926 	0.049409
41.51 	0.049190 	4940 	0.048479
41.55 	0.044782 	4935 	0.044307
41.59 	0.050274 	4933 	0.049799
41.63 	0.043135 	4938 	0.042898
41.67 	0.044332 	4940 	0.043265
41.71 	0.044183 	4934 	0.043708
41.75 	0.048691 	4929 	0.047860
41.79 	0.052184 	4944 	0.051711
41.83 	0.040787 	4928 	0.040193
41.87 	0.041135 	4935 	0.040660
41.91 	0.042950 	4936 	0.042594
41.95 	0.044818 	4931 	0.044225
41.99 	0.040163 	4905 	0.039805
42.03 	0.048795 	4939 	0.048321
42.07 	0.042131 	4937 	0.041894
42.11 	0.042669 	4945 	0.042314
42.15 	0.046780 	4938 	0.045950
42.19 	0.042584 	4908 	0.042345
42.23 	0.042927 	4892 	0.042209
42.27 	0.042265 	4874 	0.041544
42.31 	0.040783 	4855 	0.040300
42.35 	0.047540 	4838 	0.046693
42.39 	0.048501 	4804 	0.047770
42.43 	0.043406 	4792 	0.042917
42.47 	0.041133 	4765 	0.041133
42.51 	0.038162 	4743 	0.037914
42.55 	0.042693 	4708 	0.042071
42.59 	0.039966 	4729 	0.039595
42.63 	0.040773 	4709 	0.040027
42.67 	0.043766 	4684 	0.042724
42.71 	0.041604 	4663 	0.041227
42.75 	0.045917 	4617 	0.044628
42.79 	0.042340 	4582 	0.041700
42.83 	0.042549 	4536 	0.042032
42.87 	0.041565 	4499 	0.040914
42.91 	0.041517 	4456 	0.041254
42.95 	0.044158 	4416 	0.043760
42.99 	0.039225 	4385 	0.038423
43.03 	0.043388 	4333 	0.042847
43.07 	0.048650 	4296 	0.048104
43.11 	0.041363 	4255 	0.041225
43.15 	0.040656 	4206 	0.039937
43.19 	0.036242 	4194 	0.035684
43.23 	0.047183 	4154 	0.046196
43.27 	0.045311 	4105 	0.044026
43.31 	0.040206 	4079 	0.040062
43.35 	0.041667 	4032 	0.040940
43.39 	0.040980 	4002 	0.040540
43.43 	0.039646 	3960 	0.039055
43.47 	0.041826 	3921 	0.041677
43.51 	0.035852 	3877 	0.035248
43.55 	0.036775 	2964 	0.036775
43.59 	0.046392 	1746 	0.045721
43.63 	0.031968 	1001 	0.031383
43.67 	0.031873 	502 	0.031873
43.71 	0.033473 	239 	0.033473
43.75 	0.000000 	16 	0.000000

File: 25SC_s1_0003.004.dat
#F C:\frames\spec\25SC_s1_0003.004
#C title =s:3 frm:4 25SC_s1
#C wavelength =0.15406

#S 1  fr_average C:\frames\spec\25SC_s1_0003.004 C:\win32app\speccom\mask.axs chi 0 180 0 360 0.02
#C 2 theta =0.000000 to 180 deg
#C   q   =0.000000 to 81.568 nm^-1
#C  chi  =0.000000 to 360 deg
#C collumns:
#C  1 position (2theta or chi in degrees)
#C  2 average intensity (sum of all counts in the region divided with number of pixels)
#C  3 Number of pixels in region)
#C  4 error (sum of sqrt(intensity) for all pixels divided by number)
#N 4
#L TTh  Int  N_pix  Err
32.99 	0.114754 	61 	0.114754
33.03 	0.060388 	1391 	0.058704
33.07 	0.062439 	2050 	0.061868
33.11 	0.061652 	2579 	0.060479
33.15 	0.063354 	2999 	0.062182
33.19 	0.056254 	3342 	0.055699
33.23 	0.052512 	3523 	0.052512
33.27 	0.056198 	3630 	0.055876
33.31 	0.068579 	3660 	0.067139
33.35 	0.059015 	3694 	0.058063
33.39 	0.055511 	3729 	0.054097
33.43 	0.065674 	3761 	0.064428
33.47 	0.053712 	3798 	0.052453
33.51 	0.062910 	3815 	0.061528
33.55 	0.054905 	3843 	0.054448
33.59 	0.061598 	3880 	0.061145
33.63 	0.055116 	3919 	0.053920
33.67 	0.060445 	3954 	0.058791
33.71 	0.055346 	3975 	0.054314
33.75 	0.059765 	3999 	0.058593
33.79 	0.069042 	4041 	0.067593
33.83 	0.062963 	4050 	0.061806
33.87 	0.062029 	4111 	0.061174
33.91 	0.065558 	4149 	0.064570
33.95 	0.065774 	4181 	0.064513
33.99 	0.060714 	4200 	0.059738
34.03 	0.066918 	4244 	0.065262
34.07 	0.062324 	4268 	0.060815
34.11 	0.065551 	4302 	0.063758
34.15 	0.057954 	4331 	0.056872
34.19 	0.063044 	4362 	0.062104
34.23 	0.065559 	4393 	0.064225
34.27 	0.054274 	4422 	0.053347
34.31 	0.063257 	4458 	0.062469
34.35 	0.064005 	4484 	0.062438
34.39 	0.065971 	4502 	0.065060
34.43 	0.061247 	4539 	0.060344
34.47 	0.056838 	4592 	0.055414
34.51 	0.059705 	4606 	0.058687
34.55 	0.060306 	4643 	0.059549
34.59 	0.064599 	4675 	0.063701
34.63 	0.063057 	4710 	0.061669
34.67 	0.055052 	4741 	0.053816
34.71 	0.051825 	4766 	0.051211
34.75 	0.051581 	4808 	0.051093
34.79 	0.058665 	4824 	0.057815
34.83 	0.056767 	4862 	0.055682
34.87 	0.064092 	4868 	0.062768
34.91 	0.058992 	4882 	0.057792
34.95 	0.062577 	4890 	0.061019
34.99 	0.061670 	4897 	0.060833
35.03 	0.065547 	4943 	0.063632
35.07 	0.064372 	4940 	0.063780
35.11 	0.060845 	4947 	0.059424
35.15 	0.060361 	4937 	0.059174
35.19 	0.062323 	4942 	0.061000
35.23 	0.061476 	4945 	0.060292
35.27 	0.061035 	4948 	0.060324
35.31 	0.055950 	4933 	0.055356
35.35 	0.060299 	4942 	0.059233
35.39 	0.068150 	4945 	0.066728
35.43 	0.063856 	4933 	0.062767
35.47 	0.065504 	4931 	0.064178
35.51 	0.057247 	4926 	0.056177
35.55 	0.057432 	4945 	0.056247
35.59 	0.062892 	4945 	0.061352
35.63 	0.067975 	4943 	0.067382
35.67 	0.063739 	4942 	0.062554
35.71 	0.054284 	4937 	0.053572
35.75 	0.058000 	4931 	0.056812
35.79 	0.067315 	4932 	0.065633
35.83 	0.060453 	4946 	0.059624
35.87 	0.066423 	4923 	0.065709
35.91 	0.066166 	4927 	0.063907
35.95 	0.064267 	4917 	0.063075
35.99 	0.065398 	4939 	0.064093
36.03 	0.062310 	4943 	0.059940
36.07 	0.059526 	4939 	0.058815
36.11 	0.063502 	4929 	0.062670
36.15 	0.061551 	4939 	0.060602
36.19 	0.061538 	4940 	0.060215
36.23 	0.061803 	4935 	0.060616
36.27 	0.062538 	4925 	0.061468
36.31 	0.062094 	4928 	0.060629
36.35 	0.058430 	4929 	0.057360
36.39 	0.066247 	4921 	0.065294
36.43 	0.063718 	4928 	0.062410
36.47 	0.055308 	4936 	0.054240
36.51 	0.060409 	4933 	0.058985
36.55 	0.065557 	4927 	0.063893
36.59 	0.060539 	4939 	0.059353
36.63 	0.058812 	4931 	0.057485
36.67 	0.055578 	4930 	0.055103
36.71 	0.064011 	4921 	0.062702
36.75 	0.064320 	4944 	0.063017
36.79 	0.062995 	4921 	0.061666
36.83 	0.061445 	4915 	0.059518
36.87 	0.057039 	4944 	0.055736
36.91 	0.062943 	4941 	0.061994
36.95 	0.064058 	4933 	0.062703
36.99 	0.056535 	4935 	0.055585
37.03 	0.060926 	4924 	0.059855
37.07 	0.063019 	4935 	0.061832
37.11 	0.063425 	4935 	0.063068
37.15 	0.057649 	4909 	0.056914
37.19 	0.054619 	4925 	0.053410
37.23 	0.060797 	4918 	0.059844
37.27 	0.059461 	4894 	0.058503
37.31 	0.052888 	4935 	0.051938
37.35 	0.059943 	4938 	0.058994
37.39 	0.060840 	4931 	0.059770
37.43 	0.057380 	4932 	0.056905
37.47 	0.053966 	4929 	0.052897
37.51 	0.058788 	4933 	0.057600
37.55 	0.054767 	4930 	0.054054
37.59 	0.061648 	4915 	0.060933
37.63 	0.063428 	4919 	0.062832
37.67 	0.060155 	4904 	0.059199
37.71 	0.056401 	4929 	0.055569
37.75 	0.056680 	4940 	0.056443
37.79 	0.051318 	4930 	0.050487
37.83 	0.058130 	4920 	0.056939
37.87 	0.060741 	4939 	0.059318
37.91 	0.053347 	4930 	0.052396
37.95 	0.056696 	4921 	0.055743
37.99 	0.055782 	4912 	0.054331
38.03 	0.063760 	4909 	0.062806
38.07 	0.056020 	4909 	0.054826
38.11 	0.060588 	4935 	0.059045
38.15 	0.061204 	4918 	0.060469
38.19 	0.062069 	4930 	0.061118
38.23 	0.057311 	4938 	0.056243
38.27 	0.065720 	4930 	0.064770
38.31 	0.065963 	4927 	0.065111
38.35 	0.065544 	4928 	0.064831
38.39 	0.060297 	4909 	0.059223
38.43 	0.067535 	4916 	0.066343
38.47 	0.064602 	4907 	0.063269
38.51 	0.074818 	4932 	0.073016
38.55 	0.070908 	4936 	0.068851
38.59 	0.061332 	4924 	0.060618
38.63 	0.069253 	4924 	0.067330
38.67 	0.062589 	4937 	0.060908
38.71 	0.067628 	4924 	0.065705
38.75 	0.058047 	4927 	0.057334
38.79 	0.050872 	4934 	0.050159
38.83 	0.061598 	4919 	0.060645
38.87 	0.056200 	4911 	0.055604
38.91 	0.056700 	4903 	0.055864
38.95 	0.057544 	4918 	0.056234
38.99 	0.052461 	4937 	0.051986
39.03 	0.052290 	4934 	0.051578
39.07 	0.050569 	4924 	0.049716
39.11 	0.050091 	4931 	0.049497
39.15 	0.056968 	4915 	0.056253
39.19 	0.056742 	4917 	0.055908
39.23 	0.057259 	4925 	0.056069
39.27 	0.052749 	4910 	0.051676
39.31 	0.055692 	4884 	0.055092
39.35 	0.057548 	4935 	0.056480
39.39 	0.055792 	4929 	0.055198
39.43 	0.057571 	4933 	0.056859
39.47 	0.056267 	4923 	0.055315
39.51 	0.059301 	4924 	0.058350
39.55 	0.053669 	4919 	0.053074
39.59 	0.060668 	4912 	0.059475
39.63 	0.060951 	4922 	0.060237
39.67 	0.058416 	4913 	0.057343
39.71 	0.055567 	4895 	0.054849
39.75 	0.066964 	4928 	0.065300
39.79 	0.062728 	4926 	0.062015
39.83 	0.061816 	4934 	0.060629
39.87 	0.060508 	4925 	0.059794
39.91 	0.056278 	4922 	0.055207
39.95 	0.059003 	4915 	0.057573
39.99 	0.059205 	4932 	0.058611
40.03 	0.055398 	4928 	0.054803
40.07 	0.054641 	4923 	0.054285
40.11 	0.052075 	4916 	0.051479
40.15 	0.053939 	4913 	0.053342
40.19 	0.058227 	4929 	0.057633
40.23 	0.056569 	4932 	0.055857
40.27 	0.055094 	4937 	0.053908
40.31 	0.053452 	4939 	0.052503
40.35 	0.053873 	4919 	0.053277
40.39 	0.054958 	4931 	0.054246
40.43 	0.046729 	4922 	0.045777
40.47 	0.053274 	4918 	0.052678
40.51 	0.052215 	4922 	0.050905
40.55 	0.052975 	4908 	0.052378
40.59 	0.053069 	4937 	0.052713
40.63 	0.055984 	4930 	0.055508
40.67 	0.052514 	4932 	0.051683
40.71 	0.050081 	4932 	0.049606
40.75 	0.057392 	4931 	0.056679
40.79 	0.063363 	4924 	0.061936
40.83 	0.052354 	4928 	0.051403
40.87 	0.048093 	4928 	0.047498
40.91 	0.052407 	4923 	0.051812
40.95 	0.052310 	4913 	0.051595
40.99 	0.055849 	4924 	0.054421
41.03 	0.054638 	4905 	0.053683
41.07 	0.053753 	4930 	0.053396
41.11 	0.054914 	4935 	0.054558
41.15 	0.063955 	4941 	0.063342
41.19 	0.051318 	4930 	0.050606
41.23 	0.048593 	4939 	0.047644
41.27 	0.059217 	4931 	0.058504
41.31 	0.055950 	4933 	0.054762
41.35 	0.051235 	4938 	0.050761
41.39 	0.052909 	4933 	0.052196
41.43 	0.052343 	4929 	0.051987
41.47 	0.056841 	4926 	0.055771
41.51 	0.053036 	4940 	0.052206
41.55 	0.056130 	4935 	0.055774
41.59 	0.050679 	4933 	0.050085
41.63 	0.049818 	4938 	0.048869
41.67 	0.052429 	4940 	0.051836
41.71 	0.054722 	4934 	0.054129
41.75 	0.052749 	4929 	0.052036
41.79 	0.050769 	4944 	0.049801
41.83 	0.051339 	4928 	0.050983
41.87 	0.054306 	4935 	0.053356
41.91 	0.050243 	4936 	0.050006
41.95 	0.054350 	4931 	0.053994
41.99 	0.047095 	4905 	0.046139
42.03 	0.050415 	4939 	0.049684
42.07 	0.050638 	4937 	0.050045
42.11 	0.053994 	4945 	0.053046
42.15 	0.047995 	4938 	0.047521
42.19 	0.048492 	4908 	0.047518
42.23 	0.049877 	4892 	0.049398
42.27 	0.050267 	4874 	0.049646
42.31 	0.054171 	4855 	0.053447
42.35 	0.053328 	4838 	0.052722
42.39 	0.045171 	4804 	0.044439
42.43 	0.047162 	4792 	0.046673
42.47 	0.048269 	4765 	0.047162
42.51 	0.051866 	4743 	0.050878
42.55 	0.049065 	4708 	0.048692
42.59 	0.051597 	4729 	0.050606
42.63 	0.050966 	4709 	0.050469
42.67 	0.049744 	4684 	0.049119
42.71 	0.049753 	4663 	0.048748
42.75 	0.047867 	4617 	0.047105
42.79 	0.045177 	4582 	0.044261
42.83 	0.046076 	4536 	0.045818
42.87 	0.047566 	4499 	0.046915
42.91 	0.046454 	4456 	0.045797
42.95 	0.047781 	4416 	0.046985
42.99 	0.046522 	4385 	0.045854
43.03 	0.055158 	4333 	0.054617
43.07 	0.052840 	4296 	0.052158
43.11 	0.046298 	4255 	0.045610
43.15 	0.048264 	4206 	0.047568
43.19 	0.051741 	4194 	0.050763
43.23 	0.048628 	4154 	0.047476
43.27 	0.052862 	4105 	0.052006
43.31 	0.040941 	4079 	0.040080
43.35 	0.051339 	4032 	0.050903
43.39 	0.050725 	4002 	0.049554
43.43 	0.052273 	3960 	0.051361
43.47 	0.045652 	3921 	0.044755
43.51 	0.048491 	3877 	0.047282
43.55 	0.051957 	2964 	0.051562
43.59 	0.045819 	1746 	0.045148
43.63 	0.055944 	1001 	0.055944
43.67 	0.033865 	502 	0.033865
43.71 	0.046025 	239 	0.043574
43.75 	0.062500 	16 	0.062500