Folder: Bessy-II-KMC-II-insitu-sin2psi/Example_Data (part 111)

File: 25SC_s1_0044.004.dat
#F C:\frames\spec\25SC_s1_0044.004
#C title =s:44 frm:4 25SC_s1
#C wavelength =0.15406

#S 1  fr_average C:\frames\spec\25SC_s1_0044.004 C:\win32app\speccom\mask.axs chi 0 180 0 360 0.02
#C 2 theta =0.000000 to 180 deg
#C   q   =0.000000 to 81.568 nm^-1
#C  chi  =0.000000 to 360 deg
#C collumns:
#C  1 position (2theta or chi in degrees)
#C  2 average intensity (sum of all counts in the region divided with number of pixels)
#C  3 Number of pixels in region)
#C  4 error (sum of sqrt(intensity) for all pixels divided by number)
#N 4
#L TTh  Int  N_pix  Err
32.99 	0.049180 	61 	0.049180
33.03 	0.048886 	1391 	0.048043
33.07 	0.067317 	2050 	0.066460
33.11 	0.056611 	2579 	0.055211
33.15 	0.049350 	2999 	0.048764
33.19 	0.049671 	3342 	0.048970
33.23 	0.055067 	3523 	0.053903
33.27 	0.052617 	3630 	0.051810
33.31 	0.060109 	3660 	0.058989
33.35 	0.064970 	3694 	0.063702
33.39 	0.051757 	3729 	0.051285
33.43 	0.061154 	3761 	0.059596
33.47 	0.057925 	3798 	0.056846
33.51 	0.054260 	3815 	0.053799
33.55 	0.058028 	3843 	0.057113
33.59 	0.055928 	3880 	0.055324
33.63 	0.062261 	3919 	0.061065
33.67 	0.058422 	3954 	0.057089
33.71 	0.065157 	3975 	0.063831
33.75 	0.055014 	3999 	0.054721
33.79 	0.056917 	4041 	0.056192
33.83 	0.060494 	4050 	0.059192
33.87 	0.059110 	4111 	0.057685
33.91 	0.059291 	4149 	0.057880
33.95 	0.062425 	4181 	0.061445
33.99 	0.060476 	4200 	0.058803
34.03 	0.066682 	4244 	0.065854
34.07 	0.060450 	4268 	0.059626
34.11 	0.056950 	4302 	0.055725
34.15 	0.060494 	4331 	0.059683
34.19 	0.061669 	4362 	0.060326
34.23 	0.063282 	4393 	0.061260
34.27 	0.054726 	4422 	0.054064
34.31 	0.052041 	4458 	0.051778
34.35 	0.063782 	4484 	0.062999
34.39 	0.056419 	4502 	0.055639
34.43 	0.061027 	4539 	0.059865
34.47 	0.055967 	4592 	0.054946
34.51 	0.059705 	4606 	0.059069
34.55 	0.059660 	4643 	0.059029
34.59 	0.059037 	4675 	0.058160
34.63 	0.057113 	4710 	0.056118
34.67 	0.057794 	4741 	0.057052
34.71 	0.058120 	4766 	0.057260
34.75 	0.056780 	4808 	0.056537
34.79 	0.056385 	4824 	0.055170
34.83 	0.060469 	4862 	0.059626
34.87 	0.058135 	4868 	0.057533
34.91 	0.052028 	4882 	0.051068
34.95 	0.066258 	4890 	0.065160
34.99 	0.057586 	4897 	0.056749
35.03 	0.057657 	4943 	0.056235
35.07 	0.055061 	4940 	0.054349
35.11 	0.054174 	4947 	0.053464
35.15 	0.049018 	4937 	0.048543
35.19 	0.061311 	4942 	0.060719
35.23 	0.066734 	4945 	0.065076
35.27 	0.066087 	4948 	0.064785
35.31 	0.054936 	4933 	0.054105
35.35 	0.057467 	4942 	0.056281
35.39 	0.059252 	4945 	0.058304
35.43 	0.054328 	4933 	0.053022
35.47 	0.059420 	4931 	0.057638
35.51 	0.054202 	4926 	0.053013
35.55 	0.060465 	4945 	0.059143
35.59 	0.057432 	4945 	0.056484
35.63 	0.060287 	4943 	0.058865
35.67 	0.059085 	4942 	0.057900
35.71 	0.061373 	4937 	0.060286
35.75 	0.060434 	4931 	0.059365
35.79 	0.069749 	4932 	0.067967
35.83 	0.057420 	4946 	0.055387
35.87 	0.053829 	4923 	0.052481
35.91 	0.056018 	4927 	0.055305
35.95 	0.058979 	4917 	0.057887
35.99 	0.056084 	4939 	0.055254
36.03 	0.058264 	4943 	0.057909
36.07 	0.057299 	4939 	0.056469
36.11 	0.055184 	4929 	0.054471
36.15 	0.062158 	4939 	0.060597
36.19 	0.051822 	4940 	0.051348
36.23 	0.057953 	4935 	0.056529
36.27 	0.055228 	4925 	0.054753
36.31 	0.053774 	4928 	0.053061
36.35 	0.060459 	4929 	0.059864
36.39 	0.057915 	4921 	0.057082
36.43 	0.053977 	4928 	0.053740
36.47 	0.055511 	4936 	0.053968
36.51 	0.051895 	4933 	0.051420
36.55 	0.055206 	4927 	0.054136
36.59 	0.062361 	4939 	0.060918
36.63 	0.060840 	4931 	0.060602
36.67 	0.057606 	4930 	0.056062
36.71 	0.058118 	4921 	0.056690
36.75 	0.055623 	4944 	0.054300
36.79 	0.053444 	4921 	0.052611
36.83 	0.052492 	4915 	0.052016
36.87 	0.055623 	4944 	0.054063
36.91 	0.059300 	4941 	0.058213
36.95 	0.054936 	4933 	0.054105
36.99 	0.059777 	4935 	0.058214
37.03 	0.057271 	4924 	0.056676
37.07 	0.060182 	4935 	0.058877
37.11 	0.053293 	4935 	0.052225
37.15 	0.059279 	4909 	0.057966
37.19 	0.052995 	4925 	0.052400
37.23 	0.055714 	4918 	0.054761
37.27 	0.057213 	4894 	0.055996
37.31 	0.059777 	4935 	0.058946
37.35 	0.061158 	4938 	0.060091
37.39 	0.054350 	4931 	0.053043
37.43 	0.059205 	4932 	0.058493
37.47 	0.060256 	4929 	0.059523
37.51 	0.056558 	4933 	0.055845
37.55 	0.051724 	4930 	0.051011
37.59 	0.050254 	4915 	0.049539
37.63 	0.055092 	4919 	0.054616
37.67 	0.060971 	4904 	0.059398
37.71 	0.046257 	4929 	0.046019
37.75 	0.059514 	4940 	0.058427
37.79 	0.060243 	4930 	0.058818
37.83 	0.056098 	4920 	0.055621
37.87 	0.054464 	4939 	0.053871
37.91 	0.061663 	4930 	0.060713
37.95 	0.054664 	4921 	0.053473
37.99 	0.057818 	4912 	0.057221
38.03 	0.062946 	4909 	0.061494
38.07 	0.053982 	4909 	0.053505
38.11 	0.050456 	4935 	0.049625
38.15 	0.055104 	4918 	0.054151
38.19 	0.052941 	4930 	0.051991
38.23 	0.054070 	4938 	0.053715
38.27 	0.054970 	4930 	0.054257
38.31 	0.063528 	4927 	0.062220
38.35 	0.056818 	4928 	0.056462
38.39 	0.071298 	4909 	0.070462
38.43 	0.060212 	4916 	0.058782
38.47 	0.063379 	4907 	0.062304
38.51 	0.062855 	4932 	0.061548
38.55 	0.064019 	4936 	0.063307
38.59 	0.065191 	4924 	0.063525
38.63 	0.063769 	4924 	0.062580
38.67 	0.063196 	4937 	0.062128
38.71 	0.059098 	4924 	0.057909
38.75 	0.056627 	4927 	0.055438
38.79 	0.059181 	4934 	0.058706
38.83 	0.057329 	4919 	0.056138
38.87 	0.051721 	4911 	0.051363
38.91 	0.057924 	4903 	0.056251
38.95 	0.053680 	4918 	0.052966
38.99 	0.055094 	4937 	0.054244
39.03 	0.061411 	4934 	0.060698
39.07 	0.053209 	4924 	0.052376
39.11 	0.055770 	4931 	0.054938
39.15 	0.055748 	4915 	0.054913
39.19 	0.049827 	4917 	0.049231
39.23 	0.053401 	4925 	0.052212
39.27 	0.054175 	4910 	0.053101
39.31 	0.052826 	4884 	0.052586
39.35 	0.055522 	4935 	0.054572
39.39 	0.058024 	4929 	0.056954
39.43 	0.054733 	4933 	0.053665
39.47 	0.055454 	4923 	0.054383
39.51 	0.054021 	4924 	0.053426
39.55 	0.055092 	4919 	0.054616
39.59 	0.052932 	4912 	0.052455
39.63 	0.054653 	4922 	0.053700
39.67 	0.056177 	4913 	0.054866
39.71 	0.055158 	4895 	0.054081
39.75 	0.048498 	4928 	0.047547
39.79 	0.048112 	4926 	0.047399
39.83 	0.052290 	4934 	0.051440
39.87 	0.058477 	4925 	0.057407
39.91 	0.053230 	4922 	0.052873
39.95 	0.056968 	4915 	0.056134
39.99 	0.053933 	4932 	0.053577
40.03 	0.049107 	4928 	0.048394
40.07 	0.057485 	4923 	0.056414
40.11 	0.053295 	4916 	0.052104
40.15 	0.056381 	4913 	0.055646
40.19 	0.054575 	4929 	0.053624
40.23 	0.050487 	4932 	0.049774
40.27 	0.053474 	4937 	0.052268
40.31 	0.046973 	4939 	0.046380
40.35 	0.050823 	4919 	0.049871
40.39 	0.050091 	4931 	0.049972
40.43 	0.049980 	4922 	0.049028
40.47 	0.050020 	4918 	0.048929
40.51 	0.053434 	4922 	0.053077
40.55 	0.051956 	4908 	0.051220
40.59 	0.048410 	4937 	0.047935
40.63 	0.053955 	4930 	0.053005
40.67 	0.049270 	4932 	0.048439
40.71 	0.055556 	4932 	0.054962
40.75 	0.053133 	4931 	0.052658
40.79 	0.049350 	4924 	0.048279
40.83 	0.052760 	4928 	0.052284
40.87 	0.048498 	4928 	0.047785
40.91 	0.049970 	4923 	0.049494
40.95 	0.051089 	4913 	0.050254
40.99 	0.050569 	4924 	0.049736
41.03 	0.048930 	4905 	0.047935
41.07 	0.050913 	4930 	0.050437
41.11 	0.049240 	4935 	0.048409
41.15 	0.050597 	4941 	0.049530
41.19 	0.044828 	4930 	0.043877
41.23 	0.054869 	4939 	0.053921
41.27 	0.052119 	4931 	0.051288
41.31 	0.048449 	4933 	0.047618
41.35 	0.050425 	4938 	0.049951
41.39 	0.048652 	4933 	0.048177
41.43 	0.048286 	4929 	0.048048
41.47 	0.048721 	4926 	0.047651
41.51 	0.044939 	4940 	0.044228
41.55 	0.054914 	4935 	0.053727
41.59 	0.049260 	4933 	0.048785
41.63 	0.047995 	4938 	0.047264
41.67 	0.047571 	4940 	0.046859
41.71 	0.051885 	4934 	0.051291
41.75 	0.051126 	4929 	0.050056
41.79 	0.048948 	4944 	0.047981
41.83 	0.046063 	4928 	0.045231
41.87 	0.050861 	4935 	0.049555
41.91 	0.050648 	4936 	0.050055
41.95 	0.043399 	4931 	0.043043
41.99 	0.046483 	4905 	0.046005
42.03 	0.048188 	4939 	0.047713
42.07 	0.048815 	4937 	0.048222
42.11 	0.047927 	4945 	0.047335
42.15 	0.047590 	4938 	0.046997
42.19 	0.043806 	4908 	0.042851
42.23 	0.051922 	4892 	0.050485
42.27 	0.047394 	4874 	0.046413
42.31 	0.046344 	4855 	0.045620
42.35 	0.043820 	4838 	0.043335
42.39 	0.043297 	4804 	0.043175
42.43 	0.046745 	4792 	0.046011
42.47 	0.043652 	4765 	0.043283
42.51 	0.046806 	4743 	0.046188
42.55 	0.046941 	4708 	0.046444
42.59 	0.049905 	4729 	0.049162
42.63 	0.047568 	4709 	0.047071
42.67 	0.043766 	4684 	0.043016
42.71 	0.048038 	4663 	0.047786
42.75 	0.045484 	4617 	0.044596
42.79 	0.047141 	4582 	0.047013
42.83 	0.042549 	4536 	0.042419
42.87 	0.048455 	4499 	0.047674
42.91 	0.042864 	4456 	0.042075
42.95 	0.048234 	4416 	0.047703
42.99 	0.045154 	4385 	0.043952
43.03 	0.050081 	4333 	0.049518
43.07 	0.045158 	4296 	0.044204
43.11 	0.044888 	4255 	0.044613
43.15 	0.043985 	4206 	0.043288
43.19 	0.041726 	4194 	0.041307
43.23 	0.048869 	4154 	0.048587
43.27 	0.047747 	4105 	0.047319
43.31 	0.046825 	4079 	0.045964
43.35 	0.047123 	4032 	0.046687
43.39 	0.050725 	4002 	0.049407
43.43 	0.039141 	3960 	0.038993
43.47 	0.052538 	3921 	0.051940
43.51 	0.046170 	3877 	0.045716
43.55 	0.046896 	2964 	0.046698
43.59 	0.045246 	1746 	0.043569
43.63 	0.038961 	1001 	0.037791
43.67 	0.047809 	502 	0.046642
43.71 	0.046025 	239 	0.046025
43.75 	0.062500 	16 	0.062500

File: 25SC_s1_0045.000.dat
#F C:\frames\spec\25SC_s1_0045.000
#C title =s:45 frm:0 25SC_s1
#C wavelength =0.15406

#S 1  fr_average C:\frames\spec\25SC_s1_0045.000 C:\win32app\speccom\mask.axs chi 0 180 0 360 0.02
#C 2 theta =0.000000 to 180 deg
#C   q   =0.000000 to 81.568 nm^-1
#C  chi  =0.000000 to 360 deg
#C collumns:
#C  1 position (2theta or chi in degrees)
#C  2 average intensity (sum of all counts in the region divided with number of pixels)
#C  3 Number of pixels in region)
#C  4 error (sum of sqrt(intensity) for all pixels divided by number)
#N 4
#L TTh  Int  N_pix  Err
32.99 	0.049180 	61 	0.049180
33.03 	0.071172 	1391 	0.069066
33.07 	0.071220 	2050 	0.069219
33.11 	0.058162 	2579 	0.057026
33.15 	0.058019 	2999 	0.056457
33.19 	0.058049 	3342 	0.057348
33.23 	0.059041 	3523 	0.058209
33.27 	0.059504 	3630 	0.058536
33.31 	0.054098 	3660 	0.053458
33.35 	0.066324 	3694 	0.065055
33.39 	0.061411 	3729 	0.060939
33.43 	0.060888 	3761 	0.060109
33.47 	0.065561 	3798 	0.064173
33.51 	0.057405 	3815 	0.056330
33.55 	0.064533 	3843 	0.062704
33.59 	0.061082 	3880 	0.060630
33.63 	0.060475 	3919 	0.059553
33.67 	0.063733 	3954 	0.062400
33.71 	0.057862 	3975 	0.056830
33.75 	0.054764 	3999 	0.053738
33.79 	0.054689 	4041 	0.053651
33.83 	0.058765 	4050 	0.056740
33.87 	0.049866 	4111 	0.048988
33.91 	0.056881 	4149 	0.056034
33.95 	0.054054 	4181 	0.053634
33.99 	0.058333 	4200 	0.056753
34.03 	0.056315 	4244 	0.055625
34.07 	0.067010 	4268 	0.066187
34.11 	0.057648 	4302 	0.056422
34.15 	0.059571 	4331 	0.058218
34.19 	0.055938 	4362 	0.054460
34.23 	0.061006 	4393 	0.059939
34.27 	0.066486 	4422 	0.064631
34.31 	0.053836 	4458 	0.052369
34.35 	0.060437 	4484 	0.059109
34.39 	0.056864 	4502 	0.056083
34.43 	0.065213 	4539 	0.063277
34.47 	0.059451 	4592 	0.058665
34.51 	0.060356 	4606 	0.059593
34.55 	0.054706 	4643 	0.054201
34.59 	0.054759 	4675 	0.053882
34.63 	0.056900 	4710 	0.055905
34.67 	0.055052 	4741 	0.054310
34.71 	0.056651 	4766 	0.055668
34.75 	0.052829 	4808 	0.051732
34.79 	0.058250 	4824 	0.057279
34.83 	0.052448 	4862 	0.051584
34.87 	0.054232 	4868 	0.052908
34.91 	0.054281 	4882 	0.053081
34.95 	0.059100 	4890 	0.057782
34.99 	0.059220 	4897 	0.058502
35.03 	0.056443 	4943 	0.055258
35.07 	0.057085 	4940 	0.055899
35.11 	0.058824 	4947 	0.058113
35.15 	0.065424 	4937 	0.064001
35.19 	0.055443 	4942 	0.054732
35.23 	0.058443 	4945 	0.057140
35.27 	0.058205 	4948 	0.056647
35.31 	0.060815 	4933 	0.060221
35.35 	0.056050 	4942 	0.054983
35.39 	0.058443 	4945 	0.057732
35.43 	0.056355 	4933 	0.055999
35.47 	0.050294 	4931 	0.049581
35.51 	0.059277 	4926 	0.058544
35.55 	0.056825 	4945 	0.056114
35.59 	0.058241 	4945 	0.057175
35.63 	0.053004 	4943 	0.051681
35.67 	0.061918 	4942 	0.060614
35.71 	0.059145 	4937 	0.058315
35.75 	0.056175 	4931 	0.055225
35.79 	0.063666 	4932 	0.061627
35.83 	0.058027 	4946 	0.056961
35.87 	0.059720 	4923 	0.058887
35.91 	0.057439 	4927 	0.056606
35.95 	0.060809 	4917 	0.059718
35.99 	0.053250 	4939 	0.052281
36.03 	0.055432 	4943 	0.054365
36.07 	0.060336 	4939 	0.059031
36.11 	0.055995 	4929 	0.054649
36.15 	0.054060 	4939 	0.052992
36.19 	0.060324 	4940 	0.058901
36.23 	0.058156 	4935 	0.057088
36.27 	0.054822 	4925 	0.053395
36.31 	0.059050 	4928 	0.058218
36.35 	0.059038 	4929 	0.057612
36.39 	0.054867 	4921 	0.053796
36.43 	0.063312 	4928 	0.062242
36.47 	0.057739 	4936 	0.056790
36.51 	0.058585 	4933 	0.057991
36.55 	0.055612 	4927 	0.054542
36.59 	0.055679 	4939 	0.055086
36.63 	0.059014 	4931 	0.058064
36.67 	0.059432 	4930 	0.058481
36.71 	0.061166 	4921 	0.060095
36.75 	0.061489 	4944 	0.060067
36.79 	0.055883 	4921 	0.055169
36.83 	0.055748 	4915 	0.054318
36.87 	0.052184 	4944 	0.051118
36.91 	0.058490 	4941 	0.057167
36.95 	0.057571 	4933 	0.056859
36.99 	0.057143 	4935 	0.056549
37.03 	0.049350 	4924 	0.048755
37.07 	0.060182 	4935 	0.059470
37.11 	0.058359 	4935 	0.057508
37.15 	0.057038 	4909 	0.056561
37.19 	0.060914 	4925 	0.059605
37.23 	0.064050 	4918 	0.062978
37.27 	0.054352 	4894 	0.053514
37.31 	0.055319 	4935 	0.053895
37.35 	0.055893 	4938 	0.054687
37.39 	0.055972 	4931 	0.055003
37.43 	0.057178 	4932 	0.055990
37.47 	0.061473 	4929 	0.060265
37.51 	0.059396 	4933 	0.058327
37.55 	0.055375 	4930 	0.054781
37.59 	0.052696 	4915 	0.051981
37.63 	0.058142 	4919 	0.056951
37.67 	0.057708 	4904 	0.056633
37.71 	0.058835 	4929 	0.057409
37.75 	0.051012 	4940 	0.050182
37.79 	0.057606 	4930 	0.056894
37.83 	0.047764 	4920 	0.047407
37.87 	0.056489 	4939 	0.055066
37.91 	0.057809 	4930 	0.057334
37.95 	0.061776 	4921 	0.059633
37.99 	0.057003 	4912 	0.055811
38.03 	0.060705 	4909 	0.058318
38.07 	0.055816 	4909 	0.054981
38.11 	0.061196 	4935 	0.060009
38.15 	0.063034 	4918 	0.060771
38.19 	0.063692 	4930 	0.061395
38.23 	0.065411 	4938 	0.063849
38.27 	0.068560 	4930 	0.066778
38.31 	0.071849 	4927 	0.070066
38.35 	0.075690 	4928 	0.073313
38.39 	0.073742 	4909 	0.072429
38.43 	0.080146 	4916 	0.077406
38.47 	0.083962 	4907 	0.081335
38.51 	0.084955 	4932 	0.083293
38.55 	0.079011 	4936 	0.076856
38.59 	0.080219 	4924 	0.078415
38.63 	0.071487 	4924 	0.070178
38.67 	0.073324 	4937 	0.072256
38.71 	0.071284 	4924 	0.070213
38.75 	0.064339 	4927 	0.063032
38.79 	0.062019 	4934 	0.061306
38.83 	0.062411 	4919 	0.061458
38.87 	0.055182 	4911 	0.053751
38.91 	0.048746 	4903 	0.047770
38.95 	0.054290 	4918 	0.053099
38.99 	0.052664 	4937 	0.052308
39.03 	0.043170 	4934 	0.042695
39.07 	0.045898 	4924 	0.044926
39.11 	0.050902 	4931 	0.050289
39.15 	0.041099 	4915 	0.040979
39.19 	0.046980 	4917 	0.046503
39.23 	0.047107 	4925 	0.046512
39.27 	0.047251 	4910 	0.046634
39.31 	0.050983 	4884 	0.050023
39.35 	0.044377 	4935 	0.044021
39.39 	0.045242 	4929 	0.044391
39.43 	0.042368 	4933 	0.042011
39.47 	0.049766 	4923 	0.049409
39.51 	0.051178 	4924 	0.050345
39.55 	0.043301 	4919 	0.042825
39.59 	0.053746 	4912 	0.052673
39.63 	0.046119 	4922 	0.044910
39.67 	0.043558 	4913 	0.042962
39.71 	0.048212 	4895 	0.047375
39.75 	0.044034 	4928 	0.043677
39.79 	0.044864 	4926 	0.043913
39.83 	0.044386 	4934 	0.043535
39.87 	0.043249 	4925 	0.043130
39.91 	0.044291 	4922 	0.043815
39.95 	0.043337 	4915 	0.042502
39.99 	0.045620 	4932 	0.045145
40.03 	0.044237 	4928 	0.043762
40.07 	0.046313 	4923 	0.045956
40.11 	0.043531 	4916 	0.043055
40.15 	0.049664 	4913 	0.049306
40.19 	0.044025 	4929 	0.043193
40.23 	0.040957 	4932 	0.040719
40.27 	0.045169 	4937 	0.044319
40.31 	0.041304 	4939 	0.040592
40.35 	0.044725 	4919 	0.044367
40.39 	0.041168 	4931 	0.040931
40.43 	0.043681 	4922 	0.043086
40.47 	0.042497 	4918 	0.041901
40.51 	0.036164 	4922 	0.036045
40.55 	0.045232 	4908 	0.044636
40.59 	0.047802 	4937 	0.047090
40.63 	0.045639 	4930 	0.045045
40.67 	0.045620 	4932 	0.044433
40.71 	0.039538 	4932 	0.039063
40.75 	0.047049 	4931 	0.046218
40.79 	0.037571 	4924 	0.037095
40.83 	0.039773 	4928 	0.039416
40.87 	0.035511 	4928 	0.035036
40.91 	0.043266 	4923 	0.042433
40.95 	0.039894 	4913 	0.039298
40.99 	0.045695 	4924 	0.044862
41.03 	0.045872 	4905 	0.045155
41.07 	0.045030 	4930 	0.044674
41.11 	0.040932 	4935 	0.040576
41.15 	0.044323 	4941 	0.043375
41.19 	0.043002 	4930 	0.042408
41.23 	0.045961 	4939 	0.045605
41.27 	0.043399 	4931 	0.042805
41.31 	0.038719 	4933 	0.038244
41.35 	0.041515 	4938 	0.040922
41.39 	0.041354 	4933 	0.040998
41.43 	0.040373 	4929 	0.040017
41.47 	0.045879 	4926 	0.045641
41.51 	0.043320 	4940 	0.043083
41.55 	0.041135 	4935 	0.040897
41.59 	0.042570 	4933 	0.042095
41.63 	0.042932 	4938 	0.042458
41.67 	0.043927 	4940 	0.043571
41.71 	0.040535 	4934 	0.040298
41.75 	0.039562 	4929 	0.039205
41.79 	0.039442 	4944 	0.038968
41.83 	0.043831 	4928 	0.043237
41.87 	0.042756 	4935 	0.041925
41.91 	0.041937 	4936 	0.041343
41.95 	0.037112 	4931 	0.036518
41.99 	0.036493 	4905 	0.036135
42.03 	0.036242 	4939 	0.035531
42.07 	0.038485 	4937 	0.038248
42.11 	0.043883 	4945 	0.043053
42.15 	0.038680 	4938 	0.038086
42.19 	0.036879 	4908 	0.036382
42.23 	0.040474 	4892 	0.039616
42.27 	0.036931 	4874 	0.036330
42.31 	0.036457 	4855 	0.036216
42.35 	0.036792 	4838 	0.036429
42.39 	0.034971 	4804 	0.034361
42.43 	0.043197 	4792 	0.042830
42.47 	0.040714 	4765 	0.040345
42.51 	0.037951 	4743 	0.037951
42.55 	0.035472 	4708 	0.035223
42.59 	0.033834 	4729 	0.033710
42.63 	0.040136 	4709 	0.040012
42.67 	0.036934 	4684 	0.036684
42.71 	0.037744 	4663 	0.037367
42.75 	0.043751 	4617 	0.043498
42.79 	0.040812 	4582 	0.040300
42.83 	0.042328 	4536 	0.041424
42.87 	0.038231 	4499 	0.037710
42.91 	0.035682 	4456 	0.035551
42.95 	0.043931 	4416 	0.043799
42.99 	0.041049 	4385 	0.040648
43.03 	0.042696 	4333 	0.042425
43.07 	0.040503 	4296 	0.039821
43.11 	0.040188 	4255 	0.039362
43.15 	0.042796 	4206 	0.042378
43.19 	0.043395 	4194 	0.043256
43.23 	0.032980 	4154 	0.032839
43.27 	0.039951 	4105 	0.039809
43.31 	0.037264 	4079 	0.036402
43.35 	0.036210 	4032 	0.036065
43.39 	0.039480 	4002 	0.039188
43.43 	0.036869 	3960 	0.036721
43.47 	0.040806 	3921 	0.040208
43.51 	0.037658 	3877 	0.037205
43.55 	0.042510 	2964 	0.042115
43.59 	0.037228 	1746 	0.036892
43.63 	0.022977 	1001 	0.022977
43.67 	0.041833 	502 	0.041833
43.71 	0.033473 	239 	0.033473
43.75 	0.000000 	16 	0.000000