Folder: Bessy-II-KMC-II-insitu-sin2psi/Example_Data (part 98)

File: 25SC_s1_0039.003.dat
#F C:\frames\spec\25SC_s1_0039.003
#C title =s:39 frm:3 25SC_s1
#C wavelength =0.15406

#S 1  fr_average C:\frames\spec\25SC_s1_0039.003 C:\win32app\speccom\mask.axs chi 0 180 0 360 0.02
#C 2 theta =0.000000 to 180 deg
#C   q   =0.000000 to 81.568 nm^-1
#C  chi  =0.000000 to 360 deg
#C collumns:
#C  1 position (2theta or chi in degrees)
#C  2 average intensity (sum of all counts in the region divided with number of pixels)
#C  3 Number of pixels in region)
#C  4 error (sum of sqrt(intensity) for all pixels divided by number)
#N 4
#L TTh  Int  N_pix  Err
32.99 	0.114754 	61 	0.105151
33.03 	0.046729 	1391 	0.046729
33.07 	0.062439 	2050 	0.060678
33.11 	0.059713 	2579 	0.058350
33.15 	0.055352 	2999 	0.054180
33.19 	0.061341 	3342 	0.060289
33.23 	0.055067 	3523 	0.054042
33.27 	0.053994 	3630 	0.053026
33.31 	0.053552 	3660 	0.052272
33.35 	0.054954 	3694 	0.054161
33.39 	0.053097 	3729 	0.052312
33.43 	0.055304 	3761 	0.054058
33.47 	0.058978 	3798 	0.058207
33.51 	0.056881 	3815 	0.056420
33.55 	0.060370 	3843 	0.059760
33.59 	0.067268 	3880 	0.065909
33.63 	0.057413 	3919 	0.056790
33.67 	0.055134 	3954 	0.054541
33.71 	0.056604 	3975 	0.055130
33.75 	0.067517 	3999 	0.066491
33.79 	0.057659 	4041 	0.056644
33.83 	0.051111 	4050 	0.050388
33.87 	0.059596 	4111 	0.059169
33.91 	0.058568 	4149 	0.057439
33.95 	0.054054 	4181 	0.053634
33.99 	0.058333 	4200 	0.057775
34.03 	0.051131 	4244 	0.050142
34.07 	0.052484 	4268 	0.051523
34.11 	0.058113 	4302 	0.057023
34.15 	0.054491 	4331 	0.053679
34.19 	0.051582 	4362 	0.051179
34.23 	0.055315 	4393 	0.054782
34.27 	0.055857 	4422 	0.054930
34.31 	0.050695 	4458 	0.050301
34.35 	0.060437 	4484 	0.059653
34.39 	0.055975 	4502 	0.054804
34.43 	0.062569 	4539 	0.061278
34.47 	0.052918 	4592 	0.052153
34.51 	0.049718 	4606 	0.049082
34.55 	0.054060 	4643 	0.053177
34.59 	0.058396 	4675 	0.057519
34.63 	0.059236 	4710 	0.058241
34.67 	0.057583 	4741 	0.056841
34.71 	0.057071 	4766 	0.056333
34.75 	0.050749 	4808 	0.049896
34.79 	0.055141 	4824 	0.054534
34.83 	0.062937 	4862 	0.061592
34.87 	0.054232 	4868 	0.053149
34.91 	0.062270 	4882 	0.061670
34.95 	0.056646 	4890 	0.055808
34.99 	0.057995 	4897 	0.057277
35.03 	0.055837 	4943 	0.055106
35.07 	0.056478 	4940 	0.055411
35.11 	0.054174 	4947 	0.053464
35.15 	0.057120 	4937 	0.056032
35.19 	0.057264 	4942 	0.056553
35.23 	0.052983 	4945 	0.052391
35.27 	0.063258 	4948 	0.062074
35.31 	0.059599 	4933 	0.058174
35.35 	0.049777 	4942 	0.049422
35.39 	0.057230 	4945 	0.056519
35.43 	0.049666 	4933 	0.048834
35.47 	0.053133 	4931 	0.051826
35.51 	0.054405 	4926 	0.053454
35.55 	0.057230 	4945 	0.056637
35.59 	0.057027 	4945 	0.055724
35.63 	0.057860 	4943 	0.056556
35.67 	0.059288 	4942 	0.058458
35.71 	0.058132 	4937 	0.057421
35.75 	0.053742 	4931 	0.053029
35.79 	0.054339 	4932 	0.053151
35.83 	0.048928 	4946 	0.048455
35.87 	0.054438 	4923 	0.053724
35.91 	0.054800 	4927 	0.054206
35.95 	0.053488 	4917 	0.052873
35.99 	0.061348 	4939 	0.060162
36.03 	0.055230 	4943 	0.054756
36.07 	0.056692 	4939 	0.055268
36.11 	0.055386 	4929 	0.054317
36.15 	0.054060 	4939 	0.053348
36.19 	0.051417 	4940 	0.050449
36.23 	0.058359 	4935 	0.056934
36.27 	0.049543 	4925 	0.048592
36.31 	0.057833 	4928 	0.057120
36.35 	0.047271 	4929 	0.046439
36.39 	0.058118 	4921 	0.057027
36.43 	0.054789 	4928 	0.053957
36.47 	0.050041 	4936 	0.049091
36.51 	0.059599 	4933 	0.057936
36.55 	0.063122 	4927 	0.062527
36.59 	0.052440 	4939 	0.051965
36.63 	0.055161 	4931 	0.054211
36.67 	0.046045 	4930 	0.045213
36.71 	0.050803 	4921 	0.049969
36.75 	0.052994 	4944 	0.051671
36.79 	0.051412 	4921 	0.050341
36.83 	0.049237 	4915 	0.048879
36.87 	0.052994 	4944 	0.052046
36.91 	0.055252 	4941 	0.054304
36.95 	0.052706 	4933 	0.051044
36.99 	0.055522 	4935 	0.054453
37.03 	0.053412 	4924 	0.052678
37.07 	0.049037 	4935 	0.048207
37.11 	0.050253 	4935 	0.049284
37.15 	0.057038 	4909 	0.056203
37.19 	0.054010 	4925 	0.053178
37.23 	0.051647 	4918 	0.051051
37.27 	0.046792 	4894 	0.046313
37.31 	0.051874 	4935 	0.051281
37.35 	0.053058 	4938 	0.052346
37.39 	0.052728 	4931 	0.051401
37.43 	0.048662 	4932 	0.047692
37.47 	0.051126 	4929 	0.050651
37.51 	0.041760 	4933 	0.041166
37.55 	0.047667 	4930 	0.046836
37.59 	0.050865 	4915 	0.050507
37.63 	0.055092 	4919 	0.054259
37.67 	0.058931 	4904 	0.058215
37.71 	0.049706 	4929 	0.049349
37.75 	0.050810 	4940 	0.049604
37.79 	0.051927 	4930 	0.051214
37.83 	0.049390 	4920 	0.049152
37.87 	0.051630 	4939 	0.051037
37.91 	0.052130 	4930 	0.050942
37.95 	0.052835 	4921 	0.052240
37.99 	0.050081 	4912 	0.049127
38.03 	0.052149 	4909 	0.051075
38.07 	0.053779 	4909 	0.053063
38.11 	0.050253 	4935 	0.049541
38.15 	0.051037 	4918 	0.050203
38.19 	0.055172 	4930 	0.054578
38.23 	0.053058 	4938 	0.052228
38.27 	0.051724 	4930 	0.050774
38.31 	0.055815 	4927 	0.054963
38.35 	0.058847 	4928 	0.058491
38.39 	0.063149 	4909 	0.062075
38.43 	0.058177 	4916 	0.056867
38.47 	0.057469 	4907 	0.056514
38.51 	0.061030 	4932 	0.060317
38.55 	0.057131 	4936 	0.056894
38.59 	0.057271 	4924 	0.056319
38.63 	0.058692 	4924 	0.057859
38.67 	0.049018 	4937 	0.047831
38.71 	0.056661 	4924 	0.055828
38.75 	0.048711 	4927 	0.047998
38.79 	0.052696 	4934 	0.051271
38.83 	0.048384 	4919 	0.048027
38.87 	0.042150 	4911 	0.041435
38.91 	0.056496 	4903 	0.055640
38.95 	0.043310 	4918 	0.042715
38.99 	0.048613 	4937 	0.047644
39.03 	0.047223 	4934 	0.046630
39.07 	0.050975 	4924 	0.049885
39.11 	0.048266 	4931 	0.047672
39.15 	0.050458 	4915 	0.049743
39.19 	0.049624 	4917 	0.049028
39.23 	0.049746 	4925 	0.048914
39.27 	0.046232 	4910 	0.045516
39.31 	0.047502 	4884 	0.046523
39.35 	0.044174 	4935 	0.042968
39.39 	0.046663 	4929 	0.045950
39.43 	0.043179 	4933 	0.042585
39.47 	0.044282 	4923 	0.043449
39.51 	0.044273 	4924 	0.043659
39.55 	0.051230 	4919 	0.050515
39.59 	0.049674 	4912 	0.049078
39.63 	0.044697 	4922 	0.043983
39.67 	0.048850 	4913 	0.047777
39.71 	0.051277 	4895 	0.051037
39.75 	0.047484 	4928 	0.046414
39.79 	0.044255 	4926 	0.043779
39.83 	0.044183 	4934 	0.043352
39.87 	0.048731 	4925 	0.047879
39.91 	0.046119 	4922 	0.045762
39.95 	0.049644 	4915 	0.049525
39.99 	0.047445 	4932 	0.046594
40.03 	0.046469 	4928 	0.045518
40.07 	0.048345 	4923 	0.047988
40.11 	0.046176 	4916 	0.045699
40.15 	0.046815 	4913 	0.046338
40.19 	0.053155 	4929 	0.051966
40.23 	0.044809 	4932 	0.044334
40.27 	0.042536 	4937 	0.042417
40.31 	0.045758 	4939 	0.045165
40.35 	0.044521 	4919 	0.043688
40.39 	0.043805 	4931 	0.043211
40.43 	0.045510 	4922 	0.044558
40.47 	0.051444 	4918 	0.050610
40.51 	0.047542 	4922 	0.047066
40.55 	0.042991 	4908 	0.042752
40.59 	0.048613 	4937 	0.048019
40.63 	0.047059 	4930 	0.046821
40.67 	0.048256 	4932 	0.047425
40.71 	0.039740 	4932 	0.039622
40.75 	0.044210 	4931 	0.043616
40.79 	0.044476 	4924 	0.043524
40.83 	0.042817 	4928 	0.041984
40.87 	0.045657 	4928 	0.045182
40.91 	0.044688 	4923 	0.044331
40.95 	0.041726 	4913 	0.041011
40.99 	0.045898 	4924 	0.045660
41.03 	0.044037 	4905 	0.043798
41.07 	0.043205 	4930 	0.042967
41.11 	0.045593 	4935 	0.044881
41.15 	0.044728 	4941 	0.044372
41.19 	0.041582 	4930 	0.041345
41.23 	0.044138 	4939 	0.043308
41.27 	0.041979 	4931 	0.041267
41.31 	0.041151 	4933 	0.040320
41.35 	0.040907 	4938 	0.040433
41.39 	0.047436 	4933 	0.047198
41.43 	0.041185 	4929 	0.040591
41.47 	0.045270 	4926 	0.044200
41.51 	0.042713 	4940 	0.042238
41.55 	0.045187 	4935 	0.044119
41.59 	0.045408 	4933 	0.044696
41.63 	0.039085 	4938 	0.038966
41.67 	0.040486 	4940 	0.040012
41.71 	0.047223 	4934 	0.046511
41.75 	0.045648 	4929 	0.045054
41.79 	0.037419 	4944 	0.036945
41.83 	0.042208 	4928 	0.041970
41.87 	0.044377 	4935 	0.043902
41.91 	0.041126 	4936 	0.040414
41.95 	0.041574 	4931 	0.041099
41.99 	0.042813 	4905 	0.042336
42.03 	0.039887 	4939 	0.039531
42.07 	0.039498 	4937 	0.039142
42.11 	0.037209 	4945 	0.036972
42.15 	0.041515 	4938 	0.041278
42.19 	0.041972 	4908 	0.041734
42.23 	0.035568 	4892 	0.035449
42.27 	0.036110 	4874 	0.035870
42.31 	0.040165 	4855 	0.039320
42.35 	0.042166 	4838 	0.041682
42.39 	0.040799 	4804 	0.040677
42.43 	0.040484 	4792 	0.039751
42.47 	0.041133 	4765 	0.040498
42.51 	0.036686 	4743 	0.036439
42.55 	0.037596 	4708 	0.037098
42.59 	0.040601 	4729 	0.040353
42.63 	0.038862 	4709 	0.038613
42.67 	0.042058 	4684 	0.041308
42.71 	0.036028 	4663 	0.035651
42.75 	0.036171 	4617 	0.036171
42.79 	0.041903 	4582 	0.041392
42.83 	0.040344 	4536 	0.040086
42.87 	0.038453 	4499 	0.038193
42.91 	0.039273 	4456 	0.039141
42.95 	0.041214 	4416 	0.040816
42.99 	0.046294 	4385 	0.045359
43.03 	0.034387 	4333 	0.034117
43.07 	0.036778 	4296 	0.036369
43.11 	0.039718 	4255 	0.038892
43.15 	0.041369 	4206 	0.040511
43.19 	0.045303 	4194 	0.045023
43.23 	0.042128 	4154 	0.041987
43.27 	0.038490 	4105 	0.037776
43.31 	0.037754 	4079 	0.037180
43.35 	0.039931 	4032 	0.039349
43.39 	0.034983 	4002 	0.034690
43.43 	0.045202 	3960 	0.044314
43.47 	0.041826 	3921 	0.041378
43.51 	0.038174 	3877 	0.037267
43.55 	0.038462 	2964 	0.037869
43.59 	0.033219 	1746 	0.032548
43.63 	0.034965 	1001 	0.034965
43.67 	0.043825 	502 	0.042658
43.71 	0.029289 	239 	0.029289
43.75 	0.000000 	16 	0.000000

File: 25SC_s1_0039.004.dat
#F C:\frames\spec\25SC_s1_0039.004
#C title =s:39 frm:4 25SC_s1
#C wavelength =0.15406

#S 1  fr_average C:\frames\spec\25SC_s1_0039.004 C:\win32app\speccom\mask.axs chi 0 180 0 360 0.02
#C 2 theta =0.000000 to 180 deg
#C   q   =0.000000 to 81.568 nm^-1
#C  chi  =0.000000 to 360 deg
#C collumns:
#C  1 position (2theta or chi in degrees)
#C  2 average intensity (sum of all counts in the region divided with number of pixels)
#C  3 Number of pixels in region)
#C  4 error (sum of sqrt(intensity) for all pixels divided by number)
#N 4
#L TTh  Int  N_pix  Err
32.99 	0.114754 	61 	0.114754
33.03 	0.053199 	1391 	0.051936
33.07 	0.058049 	2050 	0.057477
33.11 	0.060876 	2579 	0.059968
33.15 	0.058353 	2999 	0.056790
33.19 	0.052663 	3342 	0.051611
33.23 	0.059324 	3523 	0.058161
33.27 	0.055372 	3630 	0.054726
33.31 	0.058743 	3660 	0.058103
33.35 	0.060910 	3694 	0.058981
33.39 	0.061142 	3729 	0.059100
33.43 	0.061420 	3761 	0.060485
33.47 	0.067404 	3798 	0.066324
33.51 	0.059502 	3815 	0.058888
33.55 	0.051522 	3843 	0.050913
33.59 	0.057990 	3880 	0.056933
33.63 	0.055882 	3919 	0.054985
33.67 	0.061710 	3954 	0.060673
33.71 	0.058616 	3975 	0.057290
33.75 	0.058765 	3999 	0.058618
33.79 	0.070280 	4041 	0.068540
33.83 	0.056543 	4050 	0.055965
33.87 	0.056920 	4111 	0.055900
33.91 	0.054953 	4149 	0.054529
33.95 	0.060751 	4181 	0.060027
33.99 	0.060952 	4200 	0.059697
34.03 	0.064562 	4244 	0.063043
34.07 	0.058575 	4268 	0.058026
34.11 	0.060902 	4302 	0.059654
34.15 	0.058185 	4331 	0.057238
34.19 	0.052499 	4362 	0.051425
34.23 	0.061006 	4393 	0.060073
34.27 	0.066033 	4422 	0.065239
34.31 	0.056528 	4458 	0.055608
34.35 	0.056869 	4484 	0.055693
34.39 	0.059085 	4502 	0.058434
34.43 	0.063009 	4539 	0.062364
34.47 	0.055314 	4592 	0.054676
34.51 	0.065567 	4606 	0.064655
34.55 	0.057937 	4643 	0.057054
34.59 	0.057326 	4675 	0.056198
34.63 	0.053503 	4710 	0.052881
34.67 	0.056106 	4741 	0.055489
34.71 	0.053084 	4766 	0.051487
34.75 	0.059484 	4808 	0.058388
34.79 	0.059287 	4824 	0.058073
34.83 	0.053682 	4862 	0.053079
34.87 	0.049507 	4868 	0.049026
34.91 	0.054486 	4882 	0.053766
34.95 	0.055419 	4890 	0.054341
34.99 	0.054932 	4897 	0.054094
35.03 	0.058264 	4943 	0.057435
35.07 	0.062551 	4940 	0.061009
35.11 	0.054376 	4947 	0.053429
35.15 	0.061373 	4937 	0.059574
35.19 	0.055848 	4942 	0.055018
35.23 	0.053792 	4945 	0.053318
35.27 	0.058205 	4948 	0.057021
35.31 	0.055342 	4933 	0.054629
35.35 	0.052206 	4942 	0.051376
35.39 	0.059252 	4945 	0.058640
35.43 	0.060207 	4933 	0.059732
35.47 	0.055567 	4931 	0.054973
35.51 	0.057653 	4926 	0.056464
35.55 	0.057634 	4945 	0.056805
35.59 	0.060465 	4945 	0.059636
35.63 	0.054218 	4943 	0.053626
35.67 	0.062323 	4942 	0.061612
35.71 	0.058132 	4937 	0.057164
35.75 	0.053539 	4931 	0.052945
35.79 	0.060219 	4932 	0.059031
35.83 	0.053983 	4946 	0.052917
35.87 	0.056673 	4923 	0.056078
35.91 	0.056830 	4927 	0.055592
35.95 	0.056132 	4917 	0.055298
35.99 	0.058514 	4939 	0.057446
36.03 	0.056443 	4943 	0.055614
36.07 	0.053047 	4939 	0.052336
36.11 	0.051735 	4929 	0.051378
36.15 	0.056894 	4939 	0.055708
36.19 	0.055870 	4940 	0.055159
36.23 	0.061601 	4935 	0.060533
36.27 	0.058477 	4925 	0.057149
36.31 	0.054180 	4928 	0.053705
36.35 	0.059444 	4929 	0.058612
36.39 	0.060760 	4921 	0.059808
36.43 	0.060268 	4928 	0.058960
36.47 	0.056118 	4936 	0.054694
36.51 	0.051895 	4933 	0.051539
36.55 	0.058859 	4927 	0.058265
36.59 	0.058109 	4939 	0.057279
36.63 	0.059420 	4931 	0.057975
36.67 	0.060041 	4930 	0.059070
36.71 	0.053038 	4921 	0.052066
36.75 	0.053196 	4944 	0.052011
36.79 	0.051209 	4921 	0.050733
36.83 	0.062665 	4915 	0.061216
36.87 	0.053398 	4944 	0.052806
36.91 	0.051002 	4941 	0.050053
36.95 	0.053314 	4933 	0.052107
36.99 	0.056940 	4935 	0.056347
37.03 	0.052396 	4924 	0.051326
37.07 	0.053293 	4935 	0.052106
37.11 	0.049443 	4935 	0.048256
37.15 	0.055205 	4909 	0.054350
37.19 	0.056244 	4925 	0.055391
37.23 	0.053477 	4918 	0.052524
37.27 	0.055987 	4894 	0.055508
37.31 	0.055724 	4935 	0.054894
37.35 	0.056501 	4938 	0.055789
37.39 	0.057798 	4931 	0.056966
37.43 	0.051703 	4932 	0.050753
37.47 	0.056401 	4929 	0.055312
37.51 	0.057369 	4933 	0.056181
37.55 	0.052535 	4930 	0.051447
37.59 	0.052492 	4915 	0.051658
37.63 	0.057735 	4919 	0.056783
37.67 	0.050571 	4904 	0.050332
37.71 	0.053358 	4929 	0.052407
37.75 	0.050000 	4940 	0.049407
37.79 	0.048276 	4930 	0.047325
37.83 	0.055081 	4920 	0.054486
37.87 	0.056692 	4939 	0.056217
37.91 	0.053550 	4930 	0.052718
37.95 	0.057102 	4921 	0.056388
37.99 	0.057207 	4912 	0.056253
38.03 	0.053168 	4909 	0.052094
38.07 	0.053779 	4909 	0.053043
38.11 	0.047011 	4935 	0.046299
38.15 	0.056324 	4918 	0.055371
38.19 	0.058215 	4930 	0.057264
38.23 	0.063791 	4938 	0.063060
38.27 	0.056795 	4930 	0.055963
38.31 	0.061904 	4927 	0.060834
38.35 	0.064935 	4928 	0.063271
38.39 	0.065186 	4909 	0.064232
38.43 	0.068959 	4916 	0.067648
38.47 	0.061341 	4907 	0.060128
38.51 	0.070560 	4932 	0.069590
38.55 	0.070705 	4936 	0.069261
38.59 	0.061535 	4924 	0.060822
38.63 	0.062551 	4924 	0.061123
38.67 	0.056309 	4937 	0.055716
38.71 	0.066409 	4924 	0.065200
38.75 	0.056221 	4927 	0.055389
38.79 	0.061816 	4934 	0.060253
38.83 	0.053873 	4919 	0.053277
38.87 	0.049481 	4911 	0.049004
38.91 	0.052621 	4903 	0.052262
38.95 	0.050630 	4918 	0.050392
38.99 	0.059145 	4937 	0.057583
39.03 	0.054925 	4934 	0.053500
39.07 	0.057067 	4924 	0.056354
39.11 	0.056581 	4931 	0.055868
39.15 	0.055544 	4915 	0.054829
39.19 	0.049217 	4917 	0.048483
39.23 	0.054619 	4925 	0.053787
39.27 	0.053157 	4910 	0.052302
39.31 	0.048526 	4884 	0.047566
39.35 	0.056130 	4935 	0.055655
39.39 	0.051126 	4929 	0.050413
39.43 	0.056963 	4933 	0.056132
39.47 	0.053016 	4923 	0.051946
39.51 	0.057474 	4924 	0.056264
39.55 	0.056516 	4919 	0.055563
39.59 	0.054153 	4912 	0.052961
39.63 	0.051605 	4922 	0.050177
39.67 	0.061470 	4913 	0.060396
39.71 	0.052503 	4895 	0.051904
39.75 	0.057427 	4928 	0.056357
39.79 	0.051563 	4926 	0.050969
39.83 	0.052696 	4934 	0.051983
39.87 	0.059289 	4925 	0.058695
39.91 	0.045713 	4922 	0.044999
39.95 	0.061445 	4915 	0.060253
39.99 	0.053325 	4932 	0.053206
40.03 	0.052354 	4928 	0.051878
40.07 	0.056267 	4923 	0.055434
40.11 	0.056957 	4916 	0.056123
40.15 	0.057195 	4913 	0.056122
40.19 	0.052140 	4929 	0.050952
40.23 	0.053528 	4932 	0.052558
40.27 	0.049018 	4937 	0.048187
40.31 	0.052035 	4939 	0.051442
40.35 	0.051840 	4919 	0.051006
40.39 	0.048063 	4931 	0.047707
40.43 	0.050792 	4922 	0.050316
40.47 	0.045954 	4918 	0.045120
40.51 	0.052824 	4922 	0.052229
40.55 	0.051752 	4908 	0.051275
40.59 	0.050233 	4937 	0.049284
40.63 	0.052130 	4930 	0.051655
40.67 	0.059205 	4932 	0.058255
40.71 	0.052109 	4932 	0.051515
40.75 	0.058812 	4931 	0.057861
40.79 	0.046913 	4924 	0.045961
40.83 	0.051136 	4928 	0.050661
40.87 	0.050528 	4928 	0.049814
40.91 	0.055454 	4923 	0.054264
40.95 	0.050275 	4913 	0.049440
40.99 	0.052193 	4924 	0.051717
41.03 	0.055046 	4905 	0.054329
41.07 	0.048682 	4930 	0.048206
41.11 	0.045390 	4935 	0.044797
41.15 	0.048573 	4941 	0.047743
41.19 	0.044625 	4930 	0.044149
41.23 	0.050213 	4939 	0.049382
41.27 	0.051511 	4931 	0.050798
41.31 	0.052706 	4933 	0.052113
41.35 	0.048400 	4938 	0.047333
41.39 	0.053112 	4933 	0.051924
41.43 	0.046257 	4929 	0.046019
41.47 	0.050954 	4926 	0.050478
41.51 	0.051822 	4940 	0.050873
41.55 	0.053495 	4935 	0.052783
41.59 	0.048247 	4933 	0.047653
41.63 	0.051843 	4938 	0.051250
41.67 	0.050000 	4940 	0.048657
41.71 	0.046007 	4934 	0.045651
41.75 	0.047474 	4929 	0.046880
41.79 	0.048746 	4944 	0.048154
41.83 	0.048093 	4928 	0.046884
41.87 	0.048024 	4935 	0.047431
41.91 	0.049433 	4936 	0.048721
41.95 	0.042588 	4931 	0.042231
41.99 	0.054230 	4905 	0.053275
42.03 	0.044948 	4939 	0.044593
42.07 	0.044967 	4937 	0.044136
42.11 	0.041456 	4945 	0.040982
42.15 	0.051033 	4938 	0.050321
42.19 	0.047677 	4908 	0.047200
42.23 	0.046402 	4892 	0.045804
42.27 	0.048215 	4874 	0.047854
42.31 	0.052111 	4855 	0.051146
42.35 	0.042786 	4838 	0.042665
42.39 	0.049750 	4804 	0.049141
42.43 	0.046119 	4792 	0.045507
42.47 	0.044491 	4765 	0.043753
42.51 	0.046384 	4743 	0.045520
42.55 	0.043755 	4708 	0.043382
42.59 	0.045887 	4729 	0.045268
42.63 	0.045445 	4709 	0.044823
42.67 	0.046328 	4684 	0.045327
42.71 	0.047609 	4663 	0.046981
42.75 	0.051332 	4617 	0.050444
42.79 	0.048450 	4582 	0.047683
42.83 	0.042769 	4536 	0.041607
42.87 	0.043343 	4499 	0.042562
42.91 	0.041966 	4456 	0.041309
42.95 	0.042799 	4416 	0.041451
42.99 	0.041733 	4385 	0.041332
43.03 	0.046157 	4333 	0.045346
43.07 	0.048184 	4296 	0.048184
43.11 	0.052879 	4255 	0.051893
43.15 	0.047789 	4206 	0.047232
43.19 	0.047449 	4194 	0.046890
43.23 	0.049350 	4154 	0.048786
43.27 	0.043118 	4105 	0.042975
43.31 	0.044619 	4079 	0.043901
43.35 	0.039187 	4032 	0.039041
43.39 	0.047226 	4002 	0.046641
43.43 	0.037879 	3960 	0.037731
43.47 	0.040551 	3921 	0.040401
43.51 	0.043848 	3877 	0.043546
43.55 	0.048920 	2964 	0.047932
43.59 	0.044101 	1746 	0.043765
43.63 	0.036963 	1001 	0.035207
43.67 	0.039841 	502 	0.038674
43.71 	0.058577 	239 	0.058577
43.75 	0.125000 	16 	0.125000