Folder: Bessy-II-KMC-II-insitu-sin2psi/Example_Data (part 125)

File: 25SC_s1_0050.002.dat
#F C:\frames\spec\25SC_s1_0050.002
#C title =s:50 frm:2 25SC_s1
#C wavelength =0.15406

#S 1  fr_average C:\frames\spec\25SC_s1_0050.002 C:\win32app\speccom\mask.axs chi 0 180 0 360 0.02
#C 2 theta =0.000000 to 180 deg
#C   q   =0.000000 to 81.568 nm^-1
#C  chi  =0.000000 to 360 deg
#C collumns:
#C  1 position (2theta or chi in degrees)
#C  2 average intensity (sum of all counts in the region divided with number of pixels)
#C  3 Number of pixels in region)
#C  4 error (sum of sqrt(intensity) for all pixels divided by number)
#N 4
#L TTh  Int  N_pix  Err
32.99 	0.065574 	61 	0.065574
33.03 	0.062545 	1391 	0.060860
33.07 	0.066341 	2050 	0.065484
33.11 	0.063203 	2579 	0.061840
33.15 	0.062688 	2999 	0.061906
33.19 	0.056254 	3342 	0.054852
33.23 	0.061879 	3523 	0.060050
33.27 	0.054545 	3630 	0.053577
33.31 	0.056557 	3660 	0.054797
33.35 	0.055766 	3694 	0.054656
33.39 	0.057924 	3729 	0.056982
33.43 	0.061686 	3761 	0.061063
33.47 	0.056609 	3798 	0.055529
33.51 	0.055832 	3815 	0.054757
33.55 	0.062451 	3843 	0.061384
33.59 	0.060052 	3880 	0.058844
33.63 	0.060985 	3919 	0.059789
33.67 	0.060192 	3954 	0.058711
33.71 	0.064906 	3975 	0.063579
33.75 	0.053763 	3999 	0.053031
33.79 	0.058896 	4041 	0.058316
33.83 	0.056049 	4050 	0.055326
33.87 	0.059110 	4111 	0.058255
33.91 	0.064353 	4149 	0.063200
33.95 	0.059555 	4181 	0.058714
33.99 	0.058571 	4200 	0.058292
34.03 	0.059142 	4244 	0.057624
34.07 	0.061621 	4268 	0.060386
34.11 	0.061134 	4302 	0.060045
34.15 	0.056800 	4331 	0.056259
34.19 	0.063274 	4362 	0.061349
34.23 	0.053722 	4393 	0.053055
34.27 	0.059928 	4422 	0.058051
34.31 	0.057649 	4458 	0.056861
34.35 	0.055754 	4484 	0.055231
34.39 	0.055753 	4502 	0.055102
34.43 	0.054417 	4539 	0.053772
34.47 	0.057491 	4592 	0.056322
34.51 	0.062093 	4606 	0.060546
34.55 	0.055352 	4643 	0.055100
34.59 	0.057540 	4675 	0.056287
34.63 	0.059448 	4710 	0.058433
34.67 	0.056950 	4741 	0.055962
34.71 	0.056022 	4766 	0.055284
34.75 	0.055324 	4808 	0.053984
34.79 	0.057214 	4824 	0.055514
34.83 	0.053065 	4862 	0.052221
34.87 	0.056286 	4868 	0.055444
34.91 	0.049775 	4882 	0.048935
34.95 	0.053170 	4890 	0.052451
34.99 	0.062691 	4897 	0.061256
35.03 	0.052802 	4943 	0.051716
35.07 	0.055870 	4940 	0.055396
35.11 	0.057813 	4947 	0.056984
35.15 	0.058335 	4937 	0.057149
35.19 	0.060097 	4942 	0.059149
35.23 	0.054601 	4945 	0.053278
35.27 	0.056589 	4948 	0.055641
35.31 	0.064464 	4933 	0.062920
35.35 	0.062728 	4942 	0.061641
35.39 	0.057027 	4945 	0.056080
35.43 	0.058382 	4933 	0.057413
35.47 	0.057595 	4931 	0.057120
35.51 	0.055623 	4926 	0.054672
35.55 	0.055612 	4945 	0.054783
35.59 	0.055410 	4945 	0.054936
35.63 	0.057253 	4943 	0.056423
35.67 	0.055241 	4942 	0.053937
35.71 	0.057525 	4937 	0.056813
35.75 	0.051916 	4931 	0.050947
35.79 	0.054339 	4932 	0.053508
35.83 	0.055600 	4946 	0.054771
35.87 	0.054235 	4923 	0.053164
35.91 	0.059062 	4927 	0.058468
35.95 	0.059386 	4917 	0.058433
35.99 	0.055882 	4939 	0.055170
36.03 	0.057860 	4943 	0.056774
36.07 	0.056894 	4939 	0.055214
36.11 	0.056604 	4929 	0.055158
36.15 	0.058919 	4939 	0.057120
36.19 	0.052227 	4940 	0.051278
36.23 	0.062817 	4935 	0.061491
36.27 	0.053401 	4925 	0.052093
36.31 	0.056615 	4928 	0.055902
36.35 	0.058835 	4929 	0.057409
36.39 	0.055883 	4921 	0.054693
36.43 	0.057021 	4928 	0.056189
36.47 	0.057131 	4936 	0.056301
36.51 	0.059801 	4933 	0.058832
36.55 	0.057642 	4927 	0.056690
36.59 	0.057906 	4939 	0.056720
36.63 	0.056581 	4931 	0.055393
36.67 	0.054970 	4930 	0.054375
36.71 	0.050599 	4921 	0.049885
36.75 	0.061084 	4944 	0.060373
36.79 	0.058525 	4921 	0.057930
36.83 	0.055341 	4915 	0.054626
36.87 	0.051982 	4944 	0.050916
36.91 	0.062740 	4941 	0.061792
36.95 	0.049868 	4933 	0.048780
36.99 	0.058359 	4935 	0.057646
37.03 	0.047725 	4924 	0.047487
37.07 	0.055522 	4935 	0.054216
37.11 	0.056738 	4935 	0.055788
37.15 	0.055205 	4909 	0.054369
37.19 	0.060305 	4925 	0.059472
37.23 	0.052054 	4918 	0.051339
37.27 	0.053739 	4894 	0.053500
37.31 	0.051672 	4935 	0.050722
37.35 	0.056906 	4938 	0.056312
37.39 	0.054147 	4931 	0.053316
37.43 	0.052920 	4932 	0.052207
37.47 	0.055995 	4929 	0.055401
37.51 	0.057571 	4933 	0.056265
37.55 	0.053550 	4930 	0.052480
37.59 	0.052085 	4915 	0.051728
37.63 	0.051637 	4919 	0.051517
37.67 	0.051183 	4904 	0.050705
37.71 	0.053561 	4929 	0.052610
37.75 	0.058300 	4940 	0.056976
37.79 	0.048276 	4930 	0.047325
37.83 	0.055894 	4920 	0.055180
37.87 	0.056084 	4939 	0.055491
37.91 	0.052941 	4930 	0.052585
37.95 	0.055070 	4921 	0.054356
37.99 	0.050692 	4912 	0.050215
38.03 	0.047464 	4909 	0.047106
38.07 	0.055205 	4909 	0.054011
38.11 	0.053293 	4935 	0.052442
38.15 	0.052664 	4918 	0.052425
38.19 	0.055578 	4930 	0.054865
38.23 	0.054678 	4938 	0.054203
38.27 	0.059838 	4930 	0.059006
38.31 	0.059671 	4927 	0.058720
38.35 	0.057427 	4928 	0.056357
38.39 	0.066409 	4909 	0.065215
38.43 	0.061635 	4916 	0.061040
38.47 	0.062971 	4907 	0.061658
38.51 	0.066707 	4932 	0.064649
38.55 	0.061994 	4936 	0.060925
38.59 	0.051990 	4924 	0.051376
38.63 	0.066206 	4924 	0.064898
38.67 	0.055702 	4937 	0.054871
38.71 	0.056255 	4924 	0.055303
38.75 	0.052567 	4927 	0.051854
38.79 	0.054520 	4934 	0.053451
38.83 	0.048587 	4919 	0.047992
38.87 	0.051517 	4911 	0.051398
38.91 	0.046502 	4903 	0.046263
38.95 	0.046360 	4918 	0.045646
38.99 	0.048410 	4937 	0.047560
39.03 	0.052493 	4934 	0.051543
39.07 	0.050975 	4924 	0.050142
39.11 	0.049686 	4931 	0.048973
39.15 	0.047406 	4915 	0.047168
39.19 	0.048200 	4917 	0.047466
39.23 	0.044467 	4925 	0.044110
39.27 	0.049898 	4910 	0.049063
39.31 	0.044636 	4884 	0.044276
39.35 	0.045390 	4935 	0.044797
39.39 	0.042605 	4929 	0.041991
39.43 	0.041962 	4933 	0.041487
39.47 	0.043469 	4923 	0.042755
39.51 	0.046507 	4924 	0.045555
39.55 	0.043911 	4919 	0.043296
39.59 	0.046621 	4912 	0.046501
39.63 	0.049370 	4922 	0.048894
39.67 	0.047425 	4913 	0.046352
39.71 	0.042288 	4895 	0.041690
39.75 	0.043425 	4928 	0.043069
39.79 	0.046691 	4926 	0.046572
39.83 	0.044183 	4934 	0.043590
39.87 	0.046497 	4925 	0.045546
39.91 	0.046526 	4922 	0.045554
39.95 	0.050865 	4915 	0.050507
39.99 	0.043187 	4932 	0.042712
40.03 	0.040381 	4928 	0.040025
40.07 	0.039407 	4923 	0.038931
40.11 	0.048413 	4916 	0.048056
40.15 	0.046000 	4913 	0.044808
40.19 	0.044634 	4929 	0.043564
40.23 	0.046431 	4932 	0.045838
40.27 	0.048613 	4937 	0.047901
40.31 	0.041911 	4939 	0.040962
40.35 	0.042895 	4919 	0.042657
40.39 	0.048469 	4931 	0.047637
40.43 	0.044494 	4922 	0.043661
40.47 	0.042904 	4918 	0.042427
40.51 	0.039618 	4922 	0.039380
40.55 	0.044214 	4908 	0.043736
40.59 	0.043144 	4937 	0.042669
40.63 	0.042191 	4930 	0.041834
40.67 	0.039538 	4932 	0.039063
40.71 	0.040349 	4932 	0.039992
40.75 	0.044818 	4931 	0.044462
40.79 	0.042851 	4924 	0.042257
40.83 	0.044846 	4928 	0.043776
40.87 	0.039570 	4928 	0.038975
40.91 	0.044688 	4923 	0.044212
40.95 	0.041522 	4913 	0.040807
40.99 	0.045085 	4924 	0.044372
41.03 	0.045872 	4905 	0.045274
41.07 	0.042394 	4930 	0.042037
41.11 	0.044174 	4935 	0.043699
41.15 	0.038251 	4941 	0.037540
41.19 	0.040771 	4930 	0.040296
41.23 	0.042114 	4939 	0.041521
41.27 	0.040154 	4931 	0.039917
41.31 	0.045611 	4933 	0.044998
41.35 	0.044552 	4938 	0.043959
41.39 	0.042773 	4933 	0.042298
41.43 	0.047068 	4929 	0.046712
41.47 	0.039992 	4926 	0.039754
41.51 	0.038259 	4940 	0.037903
41.55 	0.039108 	4935 	0.038871
41.59 	0.042773 	4933 	0.042298
41.63 	0.038680 	4938 	0.038442
41.67 	0.038664 	4940 	0.038190
41.71 	0.037495 	4934 	0.037257
41.75 	0.039968 	4929 	0.039968
41.79 	0.047128 	4944 	0.046298
41.83 	0.037744 	4928 	0.037506
41.87 	0.039919 	4935 	0.039444
41.91 	0.040519 	4936 	0.040044
41.95 	0.042385 	4931 	0.041672
41.99 	0.041590 	4905 	0.041113
42.03 	0.038874 	4939 	0.037925
42.07 	0.033219 	4937 	0.032981
42.11 	0.038625 	4945 	0.038388
42.15 	0.043742 	4938 	0.043387
42.19 	0.042584 	4908 	0.042345
42.23 	0.034546 	4892 	0.034546
42.27 	0.042060 	4874 	0.041820
42.31 	0.039753 	4855 	0.039632
42.35 	0.037205 	4838 	0.036842
42.39 	0.045587 	4804 	0.045099
42.43 	0.040484 	4792 	0.040362
42.47 	0.035677 	4765 	0.035431
42.51 	0.041535 	4743 	0.041041
42.55 	0.038870 	4708 	0.038123
42.59 	0.036371 	4729 	0.035876
42.63 	0.039924 	4709 	0.039550
42.67 	0.038856 	4684 	0.038606
42.71 	0.037744 	4663 	0.037241
42.75 	0.034871 	4617 	0.034617
42.79 	0.033828 	4582 	0.033444
42.83 	0.033951 	4536 	0.033692
42.87 	0.036675 	4499 	0.035872
42.91 	0.037253 	4456 	0.036596
42.95 	0.038270 	4416 	0.037739
42.99 	0.035348 	4385 	0.035081
43.03 	0.039465 	4333 	0.039329
43.07 	0.039106 	4296 	0.038833
43.11 	0.038543 	4255 	0.038543
43.15 	0.042320 	4206 	0.042042
43.19 	0.041488 	4194 	0.041069
43.23 	0.036591 	4154 	0.036309
43.27 	0.038733 	4105 	0.038162
43.31 	0.040941 	4079 	0.040654
43.35 	0.031498 	4032 	0.031353
43.39 	0.039730 	4002 	0.038998
43.43 	0.041919 	3960 	0.040884
43.47 	0.033410 	3921 	0.033260
43.51 	0.038432 	3877 	0.037979
43.55 	0.028003 	2964 	0.027607
43.59 	0.033792 	1746 	0.033121
43.63 	0.042957 	1001 	0.042372
43.67 	0.039841 	502 	0.039841
43.71 	0.033473 	239 	0.033473
43.75 	0.062500 	16 	0.062500

File: 25SC_s1_0050.003.dat
#F C:\frames\spec\25SC_s1_0050.003
#C title =s:50 frm:3 25SC_s1
#C wavelength =0.15406

#S 1  fr_average C:\frames\spec\25SC_s1_0050.003 C:\win32app\speccom\mask.axs chi 0 180 0 360 0.02
#C 2 theta =0.000000 to 180 deg
#C   q   =0.000000 to 81.568 nm^-1
#C  chi  =0.000000 to 360 deg
#C collumns:
#C  1 position (2theta or chi in degrees)
#C  2 average intensity (sum of all counts in the region divided with number of pixels)
#C  3 Number of pixels in region)
#C  4 error (sum of sqrt(intensity) for all pixels divided by number)
#N 4
#L TTh  Int  N_pix  Err
32.99 	0.081967 	61 	0.081967
33.03 	0.071891 	1391 	0.071470
33.07 	0.058537 	2050 	0.056822
33.11 	0.059713 	2579 	0.058123
33.15 	0.061687 	2999 	0.060711
33.19 	0.061939 	3342 	0.060361
33.23 	0.063298 	3523 	0.062633
33.27 	0.052342 	3630 	0.051212
33.31 	0.057923 	3660 	0.056643
33.35 	0.059285 	3694 	0.057858
33.39 	0.063288 	3729 	0.062659
33.43 	0.059293 	3761 	0.058981
33.47 	0.058452 	3798 	0.057064
33.51 	0.063172 	3815 	0.061329
33.55 	0.062972 	3843 	0.061752
33.59 	0.064433 	3880 	0.063074
33.63 	0.059454 	3919 	0.057636
33.67 	0.055640 	3954 	0.055344
33.71 	0.064403 	3975 	0.063076
33.75 	0.053013 	3999 	0.051988
33.79 	0.058896 	4041 	0.057882
33.83 	0.062963 	4050 	0.061372
33.87 	0.054245 	4111 	0.053675
33.91 	0.063148 	4149 	0.062301
33.95 	0.063382 	4181 	0.062121
33.99 	0.056429 	4200 	0.055871
34.03 	0.061499 	4244 	0.060256
34.07 	0.057404 	4268 	0.056031
34.11 	0.056485 	4302 	0.055668
34.15 	0.061649 	4331 	0.059890
34.19 	0.051811 	4362 	0.051140
34.23 	0.062144 	4393 	0.061211
34.27 	0.061963 	4422 	0.060087
34.31 	0.063033 	4458 	0.061719
34.35 	0.058430 	4484 	0.057516
34.39 	0.054198 	4502 	0.052767
34.43 	0.061908 	4539 	0.060101
34.47 	0.059016 	4592 	0.058505
34.51 	0.058185 	4606 	0.057295
34.55 	0.062460 	4643 	0.061450
34.59 	0.060963 	4675 	0.060211
34.63 	0.052866 	4710 	0.051747
34.67 	0.063067 	4741 	0.061708
34.71 	0.058540 	4766 	0.057679
34.75 	0.060108 	4808 	0.059499
34.79 	0.062189 	4824 	0.061096
34.83 	0.063348 	4862 	0.062023
34.87 	0.056491 	4868 	0.055529
34.91 	0.064318 	4882 	0.063218
34.95 	0.051534 	4890 	0.050077
34.99 	0.054932 	4897 	0.053735
35.03 	0.055837 	4943 	0.055007
35.07 	0.059312 	4940 	0.058126
35.11 	0.056802 	4947 	0.055500
35.15 	0.064209 	4937 	0.062528
35.19 	0.061109 	4942 	0.059924
35.23 	0.055410 	4945 	0.054462
35.27 	0.063460 	4948 	0.062039
35.31 	0.059193 	4933 	0.058599
35.35 	0.055848 	4942 	0.055018
35.39 	0.064307 	4945 	0.063123
35.43 	0.058382 	4933 	0.057432
35.47 	0.059826 	4931 	0.058756
35.51 	0.057856 	4926 	0.057143
35.55 	0.055410 	4945 	0.054699
35.59 	0.055005 	4945 	0.053584
35.63 	0.052195 	4943 	0.051484
35.67 	0.056860 	4942 	0.055793
35.71 	0.060766 	4937 	0.059579
35.75 	0.057392 	4931 	0.056679
35.79 	0.053731 	4932 	0.052662
35.83 	0.055600 	4946 	0.055008
35.87 	0.058907 	4923 	0.057579
35.91 	0.063730 	4927 	0.062898
35.95 	0.059589 	4917 	0.058994
35.99 	0.057704 	4939 	0.057111
36.03 	0.055230 	4943 	0.054400
36.07 	0.059324 	4939 	0.058375
36.11 	0.058227 	4929 	0.057751
36.15 	0.052440 	4939 	0.051965
36.19 	0.051619 	4940 	0.050315
36.23 	0.053090 	4935 	0.052378
36.27 	0.054619 	4925 	0.053787
36.31 	0.061282 	4928 	0.060213
36.35 	0.054575 	4929 	0.053486
36.39 	0.061979 	4921 	0.060293
36.43 	0.058644 	4928 	0.057694
36.47 	0.051661 	4936 	0.050593
36.51 	0.054733 	4933 	0.054258
36.55 	0.051350 	4927 	0.050636
36.59 	0.059526 	4939 	0.058577
36.63 	0.056986 	4931 	0.055917
36.67 	0.057201 	4930 	0.055874
36.71 	0.053648 	4921 	0.052933
36.75 	0.052994 	4944 	0.052164
36.79 	0.059947 	4921 	0.058519
36.83 	0.051882 	4915 	0.051048
36.87 	0.051578 	4944 	0.050472
36.91 	0.057073 	4941 	0.055414
36.95 	0.053720 	4933 	0.053126
36.99 	0.050861 	4935 	0.050149
37.03 	0.058083 	4924 	0.057012
37.07 	0.049645 	4935 	0.049171
37.11 	0.060182 	4935 	0.059589
37.15 	0.058668 	4909 	0.058429
37.19 	0.061929 	4925 	0.060264
37.23 	0.057340 	4918 	0.056268
37.27 	0.052718 	4894 	0.051880
37.31 	0.057143 	4935 	0.056431
37.35 	0.054881 	4938 	0.053931
37.39 	0.052322 	4931 	0.051966
37.43 	0.062044 	4932 	0.060619
37.47 	0.055792 	4929 	0.054960
37.51 	0.049463 	4933 	0.048394
37.55 	0.050710 	4930 	0.049878
37.59 	0.048220 	4915 	0.047743
37.63 	0.054076 	4919 	0.052528
37.67 	0.050979 	4904 	0.050143
37.71 	0.053763 	4929 	0.053169
37.75 	0.048583 	4940 	0.048109
37.79 	0.046856 	4930 	0.046024
37.83 	0.053049 	4920 	0.051581
37.87 	0.045151 	4939 	0.044558
37.91 	0.052738 	4930 	0.051788
37.95 	0.048974 	4921 	0.048260
37.99 	0.055171 	4912 	0.054694
38.03 	0.053575 	4909 	0.052620
38.07 	0.050112 	4909 	0.049515
38.11 	0.057751 	4935 	0.057039
38.15 	0.048597 	4918 	0.048001
38.19 	0.052738 	4930 	0.051550
38.23 	0.055286 	4938 	0.054218
38.27 	0.051724 	4930 	0.050774
38.31 	0.051350 	4927 	0.050280
38.35 	0.061485 	4928 	0.060772
38.39 	0.061520 	4909 	0.061042
38.43 	0.064280 	4916 	0.063446
38.47 	0.063786 	4907 	0.062473
38.51 	0.059813 	4932 	0.058388
38.55 	0.062196 	4936 	0.061247
38.59 	0.055037 	4924 	0.053609
38.63 	0.067222 	4924 	0.066508
38.67 	0.058740 	4937 	0.057554
38.71 	0.052600 	4924 	0.051886
38.75 	0.052973 	4927 	0.052022
38.79 	0.055533 	4934 	0.054583
38.83 	0.055296 	4919 	0.054819
38.87 	0.048259 	4911 	0.047782
38.91 	0.047114 	4903 	0.046517
38.95 	0.053884 	4918 	0.053526
38.99 	0.046587 	4937 	0.045994
39.03 	0.046413 	4934 	0.046175
39.07 	0.054427 	4924 	0.053832
39.11 	0.052119 	4931 	0.050931
39.15 	0.049034 	4915 	0.048914
39.19 	0.049217 	4917 	0.048145
39.23 	0.049340 	4925 	0.048864
39.27 	0.047658 	4910 	0.046584
39.31 	0.050983 	4884 	0.050623
39.35 	0.051266 	4935 	0.050079
39.39 	0.046663 	4929 	0.045831
39.43 	0.047436 	4933 	0.047079
39.47 	0.046516 	4923 	0.046159
39.51 	0.049756 	4924 	0.048805
39.55 	0.044521 	4919 	0.043807
39.59 	0.047435 	4912 	0.047196
39.63 	0.046526 	4922 	0.045812
39.67 	0.049257 	4913 	0.048284
39.71 	0.051073 	4895 	0.050235
39.75 	0.049919 	4928 	0.049087
39.79 	0.049330 	4926 	0.048498
39.83 	0.047831 	4934 	0.047119
39.87 	0.047310 	4925 	0.047072
39.91 	0.043885 	4922 	0.043290
39.95 	0.043947 	4915 	0.043113
39.99 	0.046634 	4932 	0.046159
40.03 	0.046266 	4928 	0.046028
40.07 	0.052610 	4923 	0.052372
40.11 	0.045566 	4916 	0.045089
40.15 	0.043761 	4913 	0.043523
40.19 	0.051735 	4929 	0.051022
40.23 	0.044607 	4932 	0.044013
40.27 	0.046587 	4937 	0.046112
40.31 	0.041101 	4939 	0.041101
40.35 	0.043505 	4919 	0.043028
40.39 	0.046644 	4931 	0.045931
40.43 	0.046119 	4922 	0.045048
40.47 	0.040260 	4918 	0.039546
40.51 	0.046526 	4922 	0.045812
40.55 	0.050937 	4908 	0.050460
40.59 	0.047397 	4937 	0.047279
40.63 	0.050913 	4930 	0.049705
40.67 	0.042376 	4932 	0.041664
40.71 	0.047851 	4932 	0.046782
40.75 	0.045427 	4931 	0.044714
40.79 	0.051787 	4924 	0.051430
40.83 	0.046672 	4928 	0.046078
40.87 	0.050122 	4928 	0.049646
40.91 	0.044079 	4923 	0.043107
40.95 	0.047018 	4913 	0.046780
40.99 	0.047116 	4924 	0.046283
41.03 	0.043629 	4905 	0.043032
41.07 	0.045842 	4930 	0.045367
41.11 	0.045593 	4935 	0.044643
41.15 	0.044930 	4941 	0.044812
41.19 	0.045842 	4930 	0.045367
41.23 	0.051427 	4939 	0.050479
41.27 	0.041574 	4931 	0.041099
41.31 	0.044192 	4933 	0.043598
41.35 	0.049818 	4938 	0.049343
41.39 	0.047030 	4933 	0.046436
41.43 	0.042808 	4929 	0.041976
41.47 	0.039992 	4926 	0.039278
41.51 	0.045951 	4940 	0.045359
41.55 	0.044580 	4935 	0.044105
41.59 	0.042976 	4933 	0.042145
41.63 	0.045970 	4938 	0.045258
41.67 	0.045142 	4940 	0.044905
41.71 	0.045197 	4934 	0.043871
41.75 	0.042402 	4929 	0.042046
41.79 	0.043083 	4944 	0.042372
41.83 	0.046469 	4928 	0.045875
41.87 	0.040122 	4935 	0.039746
41.91 	0.053687 	4936 	0.053094
41.95 	0.037721 	4931 	0.037226
41.99 	0.037717 	4905 	0.037358
42.03 	0.046163 	4939 	0.045452
42.07 	0.040308 	4937 	0.039833
42.11 	0.043074 	4945 	0.042482
42.15 	0.037870 	4938 	0.037632
42.19 	0.040546 	4908 	0.040069
42.23 	0.039861 	4892 	0.039741
42.27 	0.041650 	4874 	0.041289
42.31 	0.044490 	4855 	0.043766
42.35 	0.040926 	4838 	0.040563
42.39 	0.043089 	4804 	0.042601
42.43 	0.037145 	4792 	0.036534
42.47 	0.037775 	4765 	0.037284
42.51 	0.046173 	4743 	0.045309
42.55 	0.040357 	4708 	0.040108
42.59 	0.044830 	4729 	0.044458
42.63 	0.036951 	4709 	0.036577
42.67 	0.041845 	4684 	0.041469
42.71 	0.040961 	4663 	0.040458
42.75 	0.036604 	4617 	0.035589
42.79 	0.038629 	4582 	0.038246
42.83 	0.039462 	4536 	0.038946
42.87 	0.041787 	4499 	0.041527
42.91 	0.046005 	4456 	0.045611
42.95 	0.041214 	4416 	0.040551
42.99 	0.047891 	4385 	0.046421
43.03 	0.038772 	4333 	0.038637
43.07 	0.034683 	4296 	0.034547
43.11 	0.044653 	4255 	0.043690
43.15 	0.044698 	4206 	0.044280
43.19 	0.039342 	4194 	0.038364
43.23 	0.042850 	4154 	0.042145
43.27 	0.038490 	4105 	0.037919
43.31 	0.039716 	4079 	0.038567
43.35 	0.042907 	4032 	0.042471
43.39 	0.039730 	4002 	0.039291
43.43 	0.043939 	3960 	0.043348
43.47 	0.039276 	3921 	0.038678
43.51 	0.037916 	3877 	0.037160
43.55 	0.041498 	2964 	0.040510
43.59 	0.039519 	1746 	0.039183
43.63 	0.041958 	1001 	0.041373
43.67 	0.039841 	502 	0.039841
43.71 	0.025105 	239 	0.025105
43.75 	0.062500 	16 	0.062500