Folder: Bessy-II-KMC-II-insitu-sin2psi/Example_Data (part 94)

File: 25SC_s1_0038.000.dat
#F C:\frames\spec\25SC_s1_0038.000
#C title =s:38 frm:0 25SC_s1
#C wavelength =0.15406

#S 1  fr_average C:\frames\spec\25SC_s1_0038.000 C:\win32app\speccom\mask.axs chi 0 180 0 360 0.02
#C 2 theta =0.000000 to 180 deg
#C   q   =0.000000 to 81.568 nm^-1
#C  chi  =0.000000 to 360 deg
#C collumns:
#C  1 position (2theta or chi in degrees)
#C  2 average intensity (sum of all counts in the region divided with number of pixels)
#C  3 Number of pixels in region)
#C  4 error (sum of sqrt(intensity) for all pixels divided by number)
#N 4
#L TTh  Int  N_pix  Err
32.99 	0.032787 	61 	0.032787
33.03 	0.061826 	1391 	0.061826
33.07 	0.065854 	2050 	0.063853
33.11 	0.060489 	2579 	0.060034
33.15 	0.065022 	2999 	0.064240
33.19 	0.060443 	3342 	0.059362
33.23 	0.052512 	3523 	0.051847
33.27 	0.052342 	3630 	0.051535
33.31 	0.062295 	3660 	0.061655
33.35 	0.060097 	3694 	0.059146
33.39 	0.061411 	3729 	0.060782
33.43 	0.059825 	3761 	0.058890
33.47 	0.059505 	3798 	0.058271
33.51 	0.061599 	3815 	0.060038
33.55 	0.058028 	3843 	0.057265
33.59 	0.062371 	3880 	0.061163
33.63 	0.050778 	3919 	0.050031
33.67 	0.054881 	3954 	0.053251
33.71 	0.056855 	3975 	0.055505
33.75 	0.059515 	3999 	0.058758
33.79 	0.060876 	4041 	0.059281
33.83 	0.061975 	4050 	0.061252
33.87 	0.059839 	4111 	0.058842
33.91 	0.058327 	4149 	0.057480
33.95 	0.058120 	4181 	0.057116
33.99 	0.056429 	4200 	0.055871
34.03 	0.051131 	4244 	0.050441
34.07 	0.063964 	4268 	0.062981
34.11 	0.059507 	4302 	0.058826
34.15 	0.057492 	4331 	0.056140
34.19 	0.063503 	4362 	0.062272
34.23 	0.056226 	4393 	0.055292
34.27 	0.053822 	4422 	0.052630
34.31 	0.057425 	4458 	0.056768
34.35 	0.057092 	4484 	0.055633
34.39 	0.058641 	4502 	0.057730
34.43 	0.059925 	4539 	0.058893
34.47 	0.059451 	4592 	0.058686
34.51 	0.061442 	4606 	0.060297
34.55 	0.058583 	4643 	0.057069
34.59 	0.059893 	4675 	0.059141
34.63 	0.056476 	4710 	0.055854
34.67 	0.060536 	4741 	0.059053
34.71 	0.061267 	4766 	0.060653
34.75 	0.061356 	4808 	0.060991
34.79 	0.059080 	4824 	0.057865
34.83 	0.057178 	4862 	0.056455
34.87 	0.049507 	4868 	0.048544
34.91 	0.060016 	4882 	0.058457
34.95 	0.052556 	4890 	0.051957
34.99 	0.058403 	4897 	0.058044
35.03 	0.057050 	4943 	0.056339
35.07 	0.058907 	4940 	0.058195
35.11 	0.055185 	4947 	0.054119
35.15 	0.063601 	4937 	0.062889
35.19 	0.070619 	4942 	0.068960
35.23 	0.057230 	4945 	0.055926
35.27 	0.054163 	4948 	0.053571
35.31 	0.058382 	4933 	0.057076
35.35 	0.057669 	4942 	0.056839
35.39 	0.053792 	4945 	0.052962
35.43 	0.062437 	4933 	0.060873
35.47 	0.055770 	4931 	0.055413
35.51 	0.061104 	4926 	0.060510
35.55 	0.057027 	4945 	0.056553
35.59 	0.057230 	4945 	0.056282
35.63 	0.057455 	4943 	0.056388
35.67 	0.053622 	4942 	0.052674
35.71 	0.057525 	4937 	0.056576
35.75 	0.058203 	4931 	0.057015
35.79 	0.060624 	4932 	0.059674
35.83 	0.062273 	4946 	0.061207
35.87 	0.053626 	4923 	0.053150
35.91 	0.053988 	4927 	0.053513
35.95 	0.054098 	4917 	0.052788
35.99 	0.055679 	4939 	0.053881
36.03 	0.059883 	4943 	0.058816
36.07 	0.059526 	4939 	0.058577
36.11 	0.060459 	4929 	0.059389
36.15 	0.054869 	4939 	0.054039
36.19 	0.056883 	4940 	0.056053
36.23 	0.061601 	4935 	0.060889
36.27 	0.062538 	4925 	0.061943
36.31 	0.059862 	4928 	0.058673
36.35 	0.058227 	4929 	0.056920
36.39 	0.054054 	4921 	0.052983
36.43 	0.060674 	4928 	0.059842
36.47 	0.058549 	4936 	0.057837
36.51 	0.055747 	4933 	0.055035
36.55 	0.056830 	4927 	0.055997
36.59 	0.052440 	4939 	0.051847
36.63 	0.059014 	4931 	0.058420
36.67 	0.056187 	4930 	0.054761
36.71 	0.060150 	4921 	0.058345
36.75 	0.059668 	4944 	0.058246
36.79 	0.059541 	4921 	0.058588
36.83 	0.059410 	4915 	0.058099
36.87 	0.055218 	4944 	0.053777
36.91 	0.053026 	4941 	0.051603
36.95 	0.059801 	4933 	0.058713
36.99 	0.064032 	4935 	0.062351
37.03 	0.059098 	4924 	0.058603
37.07 	0.052685 	4935 	0.052210
37.11 	0.059372 	4935 	0.058660
37.15 	0.055001 	4909 	0.053569
37.19 	0.056447 	4925 	0.055376
37.23 	0.062424 	4918 	0.061471
37.27 	0.053739 	4894 	0.053121
37.31 	0.057953 	4935 	0.057360
37.35 	0.054070 	4938 	0.053121
37.39 	0.056175 	4931 	0.055443
37.43 	0.055353 	4932 	0.054165
37.47 	0.059647 	4929 	0.058934
37.51 	0.054531 	4933 	0.053462
37.55 	0.054361 	4930 	0.053410
37.59 	0.051882 	4915 	0.051405
37.63 	0.054076 	4919 	0.052746
37.67 	0.054241 	4904 	0.053764
37.71 	0.059850 	4929 	0.058661
37.75 	0.053036 	4940 	0.051594
37.79 	0.052738 	4930 	0.052144
37.83 	0.054675 	4920 	0.053941
37.87 	0.057502 	4939 	0.056434
37.91 	0.059026 	4930 	0.058195
37.95 	0.055477 	4921 	0.054762
37.99 	0.049471 	4912 	0.048517
38.03 	0.056020 	4909 	0.054826
38.07 	0.054797 	4909 	0.053485
38.11 	0.063019 	4935 	0.062070
38.15 	0.057340 	4918 	0.056387
38.19 	0.060041 	4930 	0.058714
38.23 	0.067436 	4938 	0.066468
38.27 	0.068154 	4930 	0.066966
38.31 	0.075299 	4927 	0.073635
38.35 	0.073864 	4928 	0.072418
38.39 	0.075983 	4909 	0.075028
38.43 	0.082181 	4916 	0.079559
38.47 	0.085796 	4907 	0.083647
38.51 	0.082928 	4932 	0.080434
38.55 	0.080227 	4936 	0.077616
38.59 	0.079813 	4924 	0.077553
38.63 	0.070471 	4924 	0.069282
38.67 	0.073932 	4937 	0.072745
38.71 	0.068846 	4924 	0.067657
38.75 	0.066369 	4927 	0.065636
38.79 	0.059992 	4934 	0.059517
38.83 	0.054686 	4919 	0.053852
38.87 	0.058644 	4911 	0.057928
38.91 	0.053233 	4903 	0.052396
38.95 	0.054494 	4918 	0.054017
38.99 	0.052461 	4937 	0.051630
39.03 	0.052088 	4934 	0.051138
39.07 	0.048335 	4924 	0.047621
39.11 	0.044007 	4931 	0.043532
39.15 	0.054730 	4915 	0.054135
39.19 	0.050234 	4917 	0.049043
39.23 	0.049137 	4925 	0.048186
39.27 	0.048065 	4910 	0.047707
39.31 	0.046478 	4884 	0.045519
39.35 	0.044174 	4935 	0.042987
39.39 	0.043822 	4929 	0.043585
39.43 	0.047638 	4933 	0.046570
39.47 	0.046110 	4923 	0.045515
39.51 	0.042445 	4924 	0.041969
39.55 	0.050417 	4919 	0.049821
39.59 	0.043770 	4912 	0.043413
39.63 	0.047338 	4922 	0.046981
39.67 	0.041522 	4913 	0.041165
39.71 	0.045761 	4895 	0.045282
39.75 	0.046469 	4928 	0.045994
39.79 	0.047706 	4926 	0.046993
39.83 	0.040130 	4934 	0.039655
39.87 	0.050152 	4925 	0.049558
39.91 	0.049777 	4922 	0.049419
39.95 	0.044964 	4915 	0.044607
39.99 	0.046634 	4932 	0.045684
40.03 	0.039570 	4928 	0.039094
40.07 	0.043469 	4923 	0.043350
40.11 	0.042514 	4916 	0.041184
40.15 	0.044576 	4913 	0.044337
40.19 	0.041996 	4929 	0.041521
40.23 	0.049067 	4932 	0.048711
40.27 	0.044561 	4937 	0.043850
40.31 	0.042924 	4939 	0.042568
40.35 	0.043911 	4919 	0.043435
40.39 	0.046238 	4931 	0.045882
40.43 	0.041040 	4922 	0.040445
40.47 	0.038430 	4918 	0.038073
40.51 	0.037790 	4922 	0.037551
40.55 	0.037897 	4908 	0.037301
40.59 	0.043144 	4937 	0.042788
40.63 	0.040568 	4930 	0.040211
40.67 	0.045012 	4932 	0.043824
40.71 	0.043593 	4932 	0.042761
40.75 	0.041371 	4931 	0.040045
40.79 	0.041633 	4924 	0.041157
40.83 	0.040990 	4928 	0.039920
40.87 	0.039773 	4928 	0.039178
40.91 	0.035547 	4923 	0.035190
40.95 	0.044983 	4913 	0.044267
40.99 	0.035337 	4924 	0.035099
41.03 	0.036493 	4905 	0.036016
41.07 	0.042596 	4930 	0.042002
41.11 	0.037690 	4935 	0.037334
41.15 	0.043311 	4941 	0.042244
41.19 	0.035497 	4930 	0.035140
41.23 	0.043329 	4939 	0.042973
41.27 	0.044818 	4931 	0.044343
41.31 	0.042976 	4933 	0.042382
41.35 	0.043337 	4938 	0.043337
41.39 	0.042976 	4933 	0.042501
41.43 	0.040373 	4929 	0.039898
41.47 	0.041210 	4926 	0.040853
41.51 	0.038259 	4940 	0.037548
41.55 	0.040122 	4935 	0.039884
41.59 	0.044192 	4933 	0.043480
41.63 	0.039692 	4938 	0.038980
41.67 	0.044130 	4940 	0.043537
41.71 	0.038306 	4934 	0.038068
41.75 	0.042199 	4929 	0.041724
41.79 	0.038228 	4944 	0.037399
41.83 	0.038149 	4928 	0.037793
41.87 	0.033232 	4935 	0.032876
41.91 	0.038290 	4936 	0.038053
41.95 	0.036909 	4931 	0.036672
41.99 	0.039755 	4905 	0.039517
42.03 	0.038267 	4939 	0.037792
42.07 	0.037675 	4937 	0.036844
42.11 	0.035794 	4945 	0.035557
42.15 	0.037262 	4938 	0.037143
42.19 	0.035860 	4908 	0.035740
42.23 	0.037204 	4892 	0.037084
42.27 	0.036520 	4874 	0.035919
42.31 	0.033368 	4855 	0.033126
42.35 	0.044440 	4838 	0.044319
42.39 	0.037052 	4804 	0.036809
42.43 	0.030050 	4792 	0.029561
42.47 	0.040714 	4765 	0.040222
42.51 	0.035842 	4743 	0.035101
42.55 	0.041419 	4708 	0.040921
42.59 	0.042504 	4729 	0.041616
42.63 	0.039924 	4709 	0.039799
42.67 	0.039923 	4684 	0.039423
42.71 	0.041604 	4663 	0.041081
42.75 	0.033138 	4617 	0.032885
42.79 	0.037320 	4582 	0.036809
42.83 	0.034612 	4536 	0.034483
42.87 	0.037564 	4499 	0.037173
42.91 	0.035233 	4456 	0.034970
42.95 	0.029891 	4416 	0.029759
42.99 	0.036488 	4385 	0.036087
43.03 	0.035541 	4333 	0.035271
43.07 	0.034683 	4296 	0.034547
43.11 	0.039013 	4255 	0.038600
43.15 	0.033524 	4206 	0.032944
43.19 	0.039580 	4194 	0.039301
43.23 	0.036832 	4154 	0.036550
43.27 	0.037515 	4105 	0.037373
43.31 	0.036283 	4079 	0.036283
43.35 	0.038194 	4032 	0.037759
43.39 	0.035482 	4002 	0.035043
43.43 	0.042677 	3960 	0.042381
43.47 	0.040041 	3921 	0.039742
43.51 	0.034047 	3877 	0.033896
43.55 	0.040148 	2964 	0.039358
43.59 	0.033792 	1746 	0.033456
43.63 	0.032967 	1001 	0.032967
43.67 	0.035857 	502 	0.035857
43.71 	0.054393 	239 	0.054393
43.75 	0.000000 	16 	0.000000

File: 25SC_s1_0038.001.dat
#F C:\frames\spec\25SC_s1_0038.001
#C title =s:38 frm:1 25SC_s1
#C wavelength =0.15406

#S 1  fr_average C:\frames\spec\25SC_s1_0038.001 C:\win32app\speccom\mask.axs chi 0 180 0 360 0.02
#C 2 theta =0.000000 to 180 deg
#C   q   =0.000000 to 81.568 nm^-1
#C  chi  =0.000000 to 360 deg
#C collumns:
#C  1 position (2theta or chi in degrees)
#C  2 average intensity (sum of all counts in the region divided with number of pixels)
#C  3 Number of pixels in region)
#C  4 error (sum of sqrt(intensity) for all pixels divided by number)
#N 4
#L TTh  Int  N_pix  Err
32.99 	0.098361 	61 	0.098361
33.03 	0.069015 	1391 	0.066840
33.07 	0.070244 	2050 	0.068529
33.11 	0.053509 	2579 	0.052336
33.15 	0.057352 	2999 	0.056571
33.19 	0.059246 	3342 	0.058370
33.23 	0.057337 	3523 	0.056340
33.27 	0.060606 	3630 	0.059799
33.31 	0.058743 	3660 	0.057783
33.35 	0.054413 	3694 	0.053461
33.39 	0.063824 	3729 	0.063353
33.43 	0.065408 	3761 	0.064162
33.47 	0.066087 	3798 	0.065162
33.51 	0.051900 	3815 	0.050979
33.55 	0.060370 	3843 	0.059150
33.59 	0.059278 	3880 	0.058674
33.63 	0.064302 	3919 	0.063704
33.67 	0.057410 	3954 	0.056521
33.71 	0.060126 	3975 	0.059242
33.75 	0.058015 	3999 	0.057429
33.79 	0.061618 	4041 	0.060604
33.83 	0.058272 	4050 	0.057115
33.87 	0.056434 	4111 	0.055009
33.91 	0.058086 	4149 	0.057216
33.95 	0.059316 	4181 	0.058195
33.99 	0.054762 	4200 	0.054204
34.03 	0.062205 	4244 	0.061377
34.07 	0.053421 	4268 	0.052460
34.11 	0.063226 	4302 	0.062409
34.15 	0.059109 	4331 	0.058410
34.19 	0.055708 	4362 	0.055037
34.23 	0.057592 	4393 	0.056392
34.27 	0.049751 	4422 	0.049221
34.31 	0.058098 	4458 	0.057047
34.35 	0.056646 	4484 	0.055731
34.39 	0.056197 	4502 	0.055547
34.43 	0.054197 	4539 	0.053294
34.47 	0.056620 	4592 	0.055089
34.51 	0.054711 	4606 	0.053948
34.55 	0.056214 	4643 	0.055457
34.59 	0.054118 	4675 	0.053115
34.63 	0.060297 	4710 	0.059551
34.67 	0.058426 	4741 	0.057438
34.71 	0.054343 	4766 	0.053606
34.75 	0.052205 	4808 	0.051352
34.79 	0.056385 	4824 	0.055272
34.83 	0.057384 	4862 	0.056299
34.87 	0.054232 	4868 	0.053630
34.91 	0.052642 	4882 	0.052042
34.95 	0.060941 	4890 	0.059863
34.99 	0.051256 	4897 	0.050179
35.03 	0.056241 	4943 	0.054681
35.07 	0.043117 	4940 	0.042999
35.11 	0.052153 	4947 	0.051442
35.15 	0.053676 	4937 	0.051996
35.19 	0.063537 	4942 	0.062707
35.23 	0.056825 	4945 	0.055996
35.27 	0.049515 	4948 	0.049041
35.31 	0.055139 	4933 	0.054545
35.35 	0.058681 	4942 	0.056903
35.39 	0.059858 	4945 	0.059029
35.43 	0.059193 	4933 	0.058006
35.47 	0.054958 	4931 	0.053889
35.51 	0.060495 	4926 	0.059168
35.55 	0.054803 	4945 	0.053855
35.59 	0.049747 	4945 	0.048800
35.63 	0.062917 	4943 	0.061851
35.67 	0.059288 	4942 	0.058221
35.71 	0.057727 	4937 	0.057015
35.75 	0.055770 	4931 	0.055176
35.79 	0.056772 	4932 	0.056059
35.83 	0.052972 	4946 	0.052380
35.87 	0.053626 	4923 	0.053388
35.91 	0.052973 	4927 	0.051547
35.95 	0.060809 	4917 	0.060095
35.99 	0.054667 	4939 	0.053699
36.03 	0.055634 	4943 	0.054568
36.07 	0.057704 	4939 	0.056518
36.11 	0.052749 	4929 	0.052155
36.15 	0.053857 	4939 	0.052908
36.19 	0.051215 	4940 	0.049673
36.23 	0.052888 	4935 	0.051938
36.27 	0.054213 	4925 	0.052905
36.31 	0.055804 	4928 	0.055328
36.35 	0.049706 	4929 	0.049468
36.39 	0.054664 	4921 	0.053592
36.43 	0.059456 	4928 	0.058267
36.47 	0.051256 	4936 	0.049951
36.51 	0.057369 	4933 	0.056538
36.55 	0.055003 	4927 	0.054646
36.59 	0.054262 	4939 	0.053550
36.63 	0.054553 	4931 	0.053959
36.67 	0.055984 	4930 	0.055251
36.71 	0.050599 	4921 	0.050361
36.75 	0.057646 	4944 	0.056224
36.79 	0.052022 	4921 	0.051189
36.83 	0.054527 	4915 	0.053931
36.87 	0.046926 	4944 	0.046452
36.91 	0.050799 	4941 	0.049495
36.95 	0.055544 	4933 	0.054931
36.99 	0.057953 	4935 	0.057004
37.03 	0.054427 	4924 	0.054070
37.07 	0.052077 	4935 	0.051246
37.11 	0.053293 	4935 	0.052225
37.15 	0.053982 	4909 	0.053147
37.19 	0.050964 	4925 	0.050132
37.23 	0.058560 	4918 	0.057727
37.27 	0.055170 	4894 	0.054571
37.31 	0.055117 	4935 	0.053692
37.35 	0.054475 	4938 	0.053764
37.39 	0.055567 	4931 	0.054854
37.43 	0.051500 	4932 	0.051025
37.47 	0.054372 	4929 	0.053421
37.51 	0.055747 	4933 	0.054916
37.55 	0.055781 	4930 	0.054830
37.59 	0.052696 	4915 	0.051504
37.63 	0.048790 	4919 	0.048314
37.67 	0.053834 	4904 	0.052281
37.71 	0.056401 	4929 	0.055688
37.75 	0.054049 	4940 	0.053811
37.79 	0.051724 	4930 	0.051130
37.83 	0.058130 	4920 	0.056682
37.87 	0.054060 	4939 	0.053348
37.91 	0.047465 	4930 	0.047108
37.95 	0.053648 	4921 	0.053171
37.99 	0.059039 	4912 	0.058304
38.03 	0.056223 	4909 	0.055388
38.07 	0.052760 	4909 	0.052164
38.11 	0.054509 	4935 	0.053915
38.15 	0.055104 	4918 	0.054151
38.19 	0.056795 	4930 	0.055845
38.23 	0.065006 	4938 	0.063820
38.27 	0.067748 	4930 	0.066917
38.31 	0.064948 	4927 	0.064235
38.35 	0.070617 	4928 	0.068834
38.39 	0.065798 	4909 	0.064843
38.43 	0.067941 	4916 	0.066750
38.47 	0.070512 	4907 	0.069676
38.51 	0.082928 	4932 	0.080671
38.55 	0.073136 	4936 	0.072068
38.59 	0.066003 	4924 	0.064695
38.63 	0.069862 	4924 	0.067681
38.67 	0.064614 	4937 	0.064021
38.71 	0.061738 	4924 	0.060311
38.75 	0.063933 	4927 	0.062626
38.79 	0.057357 	4934 	0.056882
38.83 	0.051027 	4919 	0.049459
38.87 	0.050092 	4911 	0.049137
38.91 	0.053437 	4903 	0.052720
38.95 	0.050224 	4918 	0.049509
38.99 	0.046384 	4937 	0.045554
39.03 	0.046210 	4934 	0.045359
39.07 	0.043664 	4924 	0.043188
39.11 	0.044413 	4931 	0.043463
39.15 	0.043133 	4915 	0.042657
39.19 	0.048810 	4917 	0.048334
39.23 	0.042843 	4925 	0.042367
39.27 	0.040530 	4910 	0.040172
39.31 	0.047297 	4884 	0.046698
39.35 	0.047214 	4935 	0.046739
39.39 	0.045445 	4929 	0.044732
39.43 	0.044800 	4933 	0.044325
39.47 	0.050376 	4923 	0.049543
39.51 	0.046304 	4924 	0.045352
39.55 	0.043708 	4919 	0.043113
39.59 	0.042142 	4912 	0.041903
39.63 	0.050386 	4922 	0.049791
39.67 	0.045593 	4913 	0.044759
39.71 	0.049847 	4895 	0.048889
39.75 	0.045657 	4928 	0.045301
39.79 	0.041210 	4926 	0.040140
39.83 	0.043981 	4934 	0.043268
39.87 	0.040406 	4925 	0.039811
39.91 	0.039415 	4922 	0.039177
39.95 	0.051272 	4915 	0.050914
39.99 	0.041363 	4932 	0.040887
40.03 	0.042817 	4928 	0.042460
40.07 	0.045704 	4923 	0.045228
40.11 	0.039666 	4916 	0.039309
40.15 	0.046611 	4913 	0.046134
40.19 	0.037939 	4929 	0.037345
40.23 	0.040552 	4932 	0.040195
40.27 	0.045777 	4937 	0.045184
40.31 	0.047985 	4939 	0.047274
40.35 	0.045741 	4919 	0.045146
40.39 	0.038532 	4931 	0.037819
40.43 	0.043072 	4922 	0.042358
40.47 	0.038227 	4918 	0.037512
40.51 	0.040634 	4922 	0.039920
40.55 	0.045232 	4908 	0.044874
40.59 	0.042333 	4937 	0.041977
40.63 	0.044422 	4930 	0.043471
40.67 	0.043390 	4932 	0.042796
40.71 	0.036496 	4932 	0.036378
40.75 	0.035693 	4931 	0.035455
40.79 	0.043258 	4924 	0.042901
40.83 	0.041396 	4928 	0.041277
40.87 	0.042005 	4928 	0.041767
40.91 	0.039610 	4923 	0.039372
40.95 	0.044372 	4913 	0.044014
40.99 	0.037165 	4924 	0.036927
41.03 	0.036290 	4905 	0.035454
41.07 	0.039554 	4930 	0.039078
41.11 	0.037893 	4935 	0.037774
41.15 	0.039466 	4941 	0.038991
41.19 	0.041379 	4930 	0.041023
41.23 	0.042924 	4939 	0.042449
41.27 	0.047049 	4931 	0.046693
41.31 	0.041557 	4933 	0.041082
41.35 	0.040705 	4938 	0.039993
41.39 	0.035070 	4933 	0.034595
41.43 	0.036721 	4929 	0.036365
41.47 	0.037962 	4926 	0.037367
41.51 	0.040891 	4940 	0.040061
41.55 	0.043566 	4935 	0.043210
41.59 	0.039327 	4933 	0.039089
41.63 	0.039287 	4938 	0.039050
41.67 	0.035020 	4940 	0.034783
41.71 	0.038508 	4934 	0.037915
41.75 	0.038344 	4929 	0.037374
41.79 	0.040655 	4944 	0.040300
41.83 	0.036729 	4928 	0.035897
41.87 	0.035664 	4935 	0.034932
41.91 	0.041937 	4936 	0.041581
41.95 	0.041574 	4931 	0.041455
41.99 	0.039348 	4905 	0.038870
42.03 	0.039887 	4939 	0.039294
42.07 	0.036864 	4937 	0.036153
42.11 	0.042872 	4945 	0.042279
42.15 	0.042730 	4938 	0.042493
42.19 	0.035249 	4908 	0.035129
42.23 	0.037204 	4892 	0.036964
42.27 	0.034263 	4874 	0.034023
42.31 	0.036457 	4855 	0.035975
42.35 	0.035552 	4838 	0.035310
42.39 	0.034971 	4804 	0.034483
42.43 	0.037563 	4792 	0.037318
42.47 	0.037775 	4765 	0.037284
42.51 	0.037951 	4743 	0.037951
42.55 	0.035684 	4708 	0.035435
42.59 	0.036160 	4729 	0.035788
42.63 	0.034402 	4709 	0.034402
42.67 	0.036934 	4684 	0.036059
42.71 	0.039460 	4663 	0.039334
42.75 	0.036820 	4617 	0.036440
42.79 	0.037102 	4582 	0.036207
42.83 	0.040564 	4536 	0.039919
42.87 	0.040676 	4499 	0.040546
42.91 	0.038824 	4456 	0.038035
42.95 	0.040082 	4416 	0.040082
42.99 	0.034664 	4385 	0.034263
43.03 	0.033926 	4333 	0.033790
43.07 	0.036080 	4296 	0.035535
43.11 	0.039953 	4255 	0.039815
43.15 	0.035663 	4206 	0.035385
43.19 	0.036719 	4194 	0.036440
43.23 	0.038036 	4154 	0.037472
43.27 	0.033618 	4105 	0.033189
43.31 	0.039470 	4079 	0.038442
43.35 	0.038938 	4032 	0.038357
43.39 	0.042729 	4002 	0.042143
43.43 	0.037121 	3960 	0.036530
43.47 	0.034430 	3921 	0.033957
43.51 	0.038432 	3877 	0.038130
43.55 	0.033738 	2964 	0.033145
43.59 	0.034937 	1746 	0.033930
43.63 	0.027972 	1001 	0.027972
43.67 	0.037849 	502 	0.037849
43.71 	0.025105 	239 	0.025105
43.75 	0.125000 	16 	0.125000