Folder: Bessy-II-KMC-II-insitu-sin2psi/Example_Data (part 14)

File: 25SC_s1_0006.000.dat
#F C:\frames\spec\25SC_s1_0006.000
#C title =s:6 frm:0 25SC_s1
#C wavelength =0.15406

#S 1  fr_average C:\frames\spec\25SC_s1_0006.000 C:\win32app\speccom\mask.axs chi 0 180 0 360 0.02
#C 2 theta =0.000000 to 180 deg
#C   q   =0.000000 to 81.568 nm^-1
#C  chi  =0.000000 to 360 deg
#C collumns:
#C  1 position (2theta or chi in degrees)
#C  2 average intensity (sum of all counts in the region divided with number of pixels)
#C  3 Number of pixels in region)
#C  4 error (sum of sqrt(intensity) for all pixels divided by number)
#N 4
#L TTh  Int  N_pix  Err
32.99 	0.098361 	61 	0.088758
33.03 	0.069015 	1391 	0.065646
33.07 	0.058049 	2050 	0.057477
33.11 	0.049632 	2579 	0.048723
33.15 	0.061354 	2999 	0.059986
33.19 	0.056852 	3342 	0.056326
33.23 	0.055351 	3523 	0.054353
33.27 	0.057851 	3630 	0.057206
33.31 	0.064754 	3660 	0.063474
33.35 	0.065512 	3694 	0.064243
33.39 	0.062751 	3729 	0.061495
33.43 	0.056102 	3761 	0.055168
33.47 	0.062665 	3798 	0.061585
33.51 	0.065531 	3815 	0.064124
33.55 	0.067655 	3843 	0.065826
33.59 	0.060052 	3880 	0.058995
33.63 	0.065578 	3919 	0.064681
33.67 	0.073849 	3954 	0.073257
33.71 	0.055849 	3975 	0.055112
33.75 	0.055764 	3999 	0.054739
33.79 	0.058154 	4041 	0.057429
33.83 	0.067654 	4050 	0.066642
33.87 	0.067380 	4111 	0.066525
33.91 	0.055435 	4149 	0.054729
33.95 	0.052619 	4181 	0.051778
33.99 	0.062619 	4200 	0.062201
34.03 	0.059378 	4244 	0.057664
34.07 	0.061387 	4268 	0.060266
34.11 	0.059275 	4302 	0.058185
34.15 	0.059340 	4331 	0.058663
34.19 	0.058230 	4362 	0.057693
34.23 	0.048714 	4393 	0.047647
34.27 	0.063094 	4422 	0.062564
34.31 	0.056752 	4458 	0.056095
34.35 	0.055085 	4484 	0.053909
34.39 	0.060640 	4502 	0.059208
34.43 	0.062789 	4539 	0.061757
34.47 	0.055531 	4592 	0.053873
34.51 	0.061224 	4606 	0.059677
34.55 	0.057506 	4643 	0.056244
34.59 	0.060749 	4675 	0.059621
34.63 	0.052229 	4710 	0.051359
34.67 	0.058426 	4741 	0.057809
34.71 	0.054343 	4766 	0.053606
34.75 	0.055324 	4808 	0.053964
34.79 	0.064677 	4824 	0.063948
34.83 	0.054504 	4862 	0.053661
34.87 	0.056697 	4868 	0.055474
34.91 	0.060631 	4882 	0.059191
34.95 	0.061350 	4890 	0.060132
34.99 	0.051868 	4897 	0.051151
35.03 	0.061703 	4943 	0.060992
35.07 	0.054453 	4940 	0.053861
35.11 	0.059228 	4947 	0.058024
35.15 	0.057322 	4937 	0.056610
35.19 	0.060704 	4942 	0.059400
35.23 	0.057836 	4945 	0.057481
35.27 	0.062449 	4948 	0.061384
35.31 	0.053923 	4933 	0.053091
35.35 	0.057264 	4942 	0.056079
35.39 	0.062285 	4945 	0.061673
35.43 	0.065072 	4933 	0.063528
35.47 	0.057798 	4931 	0.056946
35.51 	0.055826 	4926 	0.054875
35.55 	0.057836 	4945 	0.056632
35.59 	0.063903 	4945 	0.062244
35.63 	0.057050 	4943 	0.055984
35.67 	0.056455 	4942 	0.055270
35.71 	0.059955 	4937 	0.059481
35.75 	0.062259 	4931 	0.061071
35.79 	0.056975 	4932 	0.055906
35.83 	0.063688 	4946 	0.062740
35.87 	0.054032 	4923 	0.053080
35.91 	0.061092 	4927 	0.060497
35.95 	0.057352 	4917 	0.056280
35.99 	0.062968 	4939 	0.061545
36.03 	0.059883 	4943 	0.059172
36.07 	0.058109 	4939 	0.057378
36.11 	0.060256 	4929 	0.059067
36.15 	0.056692 	4939 	0.055506
36.19 	0.067814 	4940 	0.066628
36.23 	0.048835 	4935 	0.047767
36.27 	0.064162 	4925 	0.062735
36.31 	0.054586 	4928 	0.054111
36.35 	0.063907 	4929 	0.062600
36.39 	0.055070 	4921 	0.054594
36.43 	0.061080 	4928 	0.059653
36.47 	0.058955 	4936 	0.057768
36.51 	0.061423 	4933 	0.060097
36.55 	0.060483 	4927 	0.059770
36.59 	0.069245 	4939 	0.068415
36.63 	0.060028 	4931 	0.059434
36.67 	0.056187 	4930 	0.055355
36.71 	0.062386 	4921 	0.061076
36.75 	0.064523 	4944 	0.063456
36.79 	0.060150 	4921 	0.059079
36.83 	0.062665 	4915 	0.061096
36.87 	0.060477 	4944 	0.059411
36.91 	0.056466 	4941 	0.055399
36.95 	0.059801 	4933 	0.058970
36.99 	0.063627 	4935 	0.062559
37.03 	0.065394 	4924 	0.064085
37.07 	0.062209 	4935 	0.060784
37.11 	0.060790 	4935 	0.059841
37.15 	0.061316 	4909 	0.060361
37.19 	0.060711 	4925 	0.059640
37.23 	0.055510 	4918 	0.054915
37.27 	0.058848 	4894 	0.058010
37.31 	0.065248 	4935 	0.064299
37.35 	0.062778 	4938 	0.061098
37.39 	0.055770 	4931 	0.054819
37.43 	0.063463 	4932 	0.063107
37.47 	0.065531 	4929 	0.064104
37.51 	0.062031 	4933 	0.061319
37.55 	0.055781 	4930 	0.054474
37.59 	0.058800 	4915 	0.057965
37.63 	0.059362 	4919 	0.058171
37.67 	0.057912 	4904 	0.056001
37.71 	0.055995 	4929 	0.055520
37.75 	0.052632 	4940 	0.052039
37.79 	0.064300 	4930 	0.063330
37.83 	0.054268 	4920 	0.053554
37.87 	0.056489 	4939 	0.055659
37.91 	0.052941 	4930 	0.052228
37.95 	0.057509 	4921 	0.056418
37.99 	0.057614 	4912 	0.056898
38.03 	0.054594 	4909 	0.053878
38.07 	0.051538 	4909 	0.050345
38.11 	0.061601 	4935 	0.060295
38.15 	0.056120 	4918 	0.055763
38.19 	0.056187 	4930 	0.055236
38.23 	0.060956 	4938 	0.059414
38.27 	0.055172 	4930 	0.054103
38.31 	0.060686 	4927 	0.059616
38.35 	0.065341 	4928 	0.063914
38.39 	0.069057 	4909 	0.067386
38.43 	0.070179 	4916 	0.068710
38.47 	0.075402 	4907 	0.073234
38.51 	0.084955 	4932 	0.082699
38.55 	0.085900 	4936 	0.083506
38.59 	0.082453 	4924 	0.081145
38.63 	0.082047 	4924 	0.079787
38.67 	0.082641 	4937 	0.079893
38.71 	0.075548 	4924 	0.073407
38.75 	0.068805 	4927 	0.067735
38.79 	0.069923 	4934 	0.068142
38.83 	0.057329 	4919 	0.056019
38.87 	0.058847 	4911 	0.058251
38.91 	0.055068 	4903 	0.054571
38.95 	0.054494 	4918 	0.053422
38.99 	0.052258 	4937 	0.051072
39.03 	0.052088 	4934 	0.051138
39.07 	0.057474 	4924 	0.056641
39.11 	0.047658 	4931 	0.046826
39.15 	0.050458 	4915 	0.049504
39.19 	0.053488 	4917 	0.052892
39.23 	0.046904 	4925 	0.046190
39.27 	0.043177 	4910 	0.042819
39.31 	0.044021 	4884 	0.043422
39.35 	0.046809 	4935 	0.046571
39.39 	0.045040 	4929 	0.044802
39.43 	0.042976 	4933 	0.042263
39.47 	0.049157 	4923 	0.048324
39.51 	0.047116 	4924 	0.046164
39.55 	0.051433 	4919 	0.051195
39.59 	0.047435 	4912 	0.046958
39.63 	0.045307 	4922 	0.043998
39.67 	0.046204 	4913 	0.045369
39.71 	0.046374 	4895 	0.045656
39.75 	0.047078 	4928 	0.046721
39.79 	0.044458 	4926 	0.043863
39.83 	0.041954 	4934 	0.041241
39.87 	0.046497 	4925 	0.046260
39.91 	0.045510 	4922 	0.045034
39.95 	0.047609 	4915 	0.046537
39.99 	0.041971 	4932 	0.041377
40.03 	0.050122 	4928 	0.048914
40.07 	0.046516 	4923 	0.045683
40.11 	0.046379 	4916 	0.045783
40.15 	0.042337 	4913 	0.041979
40.19 	0.046257 	4929 	0.045663
40.23 	0.045012 	4932 	0.044181
40.27 	0.041928 	4937 	0.041454
40.31 	0.046973 	4939 	0.046380
40.35 	0.045944 	4919 	0.045349
40.39 	0.044210 	4931 	0.043616
40.43 	0.046729 	4922 	0.046015
40.47 	0.044327 	4918 	0.043255
40.51 	0.042462 	4922 	0.042224
40.55 	0.042380 	4908 	0.041425
40.59 	0.044359 	4937 	0.043647
40.63 	0.046045 	4930 	0.045094
40.67 	0.043796 	4932 	0.043439
40.71 	0.050081 	4932 	0.049606
40.75 	0.042993 	4931 	0.042399
40.79 	0.044882 	4924 	0.044525
40.83 	0.040787 	4928 	0.040431
40.87 	0.047078 	4928 	0.046840
40.91 	0.042657 	4923 	0.042181
40.95 	0.047222 	4913 	0.046625
40.99 	0.044882 	4924 	0.044287
41.03 	0.047503 	4905 	0.046905
41.07 	0.041988 	4930 	0.041394
41.11 	0.042351 	4935 	0.041757
41.15 	0.043918 	4941 	0.043325
41.19 	0.042596 	4930 	0.042359
41.23 	0.047783 	4939 	0.046834
41.27 	0.043602 	4931 	0.042533
41.31 	0.041354 	4933 	0.041117
41.35 	0.045160 	4938 	0.044567
41.39 	0.043584 	4933 	0.043109
41.43 	0.041793 	4929 	0.041437
41.47 	0.049939 	4926 	0.048631
41.51 	0.045142 	4940 	0.044292
41.55 	0.042351 	4935 	0.041757
41.59 	0.042976 	4933 	0.042263
41.63 	0.040300 	4938 	0.040181
41.67 	0.040081 	4940 	0.039844
41.71 	0.043373 	4934 	0.042779
41.75 	0.042605 	4929 	0.041773
41.79 	0.039037 	4944 	0.038188
41.83 	0.036932 	4928 	0.036932
41.87 	0.042148 	4935 	0.041198
41.91 	0.045381 	4936 	0.045144
41.95 	0.038937 	4931 	0.038819
41.99 	0.042406 	4905 	0.041689
42.03 	0.037052 	4939 	0.036933
42.07 	0.043144 	4937 	0.042669
42.11 	0.042063 	4945 	0.041826
42.15 	0.038680 	4938 	0.038324
42.19 	0.044417 	4908 	0.043940
42.23 	0.040065 	4892 	0.039706
42.27 	0.038367 	4874 	0.037646
42.31 	0.048404 	4855 	0.048042
42.35 	0.037826 	4838 	0.037341
42.39 	0.038926 	4804 	0.038194
42.43 	0.042988 	4792 	0.042499
42.47 	0.040294 	4765 	0.040048
42.51 	0.041324 	4743 	0.040954
42.55 	0.039507 	4708 	0.039010
42.59 	0.038486 	4729 	0.038362
42.63 	0.043534 	4709 	0.043409
42.67 	0.039283 	4684 	0.039033
42.71 	0.041175 	4663 	0.040798
42.75 	0.038120 	4617 	0.037866
42.79 	0.039721 	4582 	0.039465
42.83 	0.038360 	4536 	0.037585
42.87 	0.037119 	4499 	0.036599
42.91 	0.038375 	4456 	0.038112
42.95 	0.040534 	4416 	0.040004
42.99 	0.041049 	4385 	0.040782
43.03 	0.041311 	4333 	0.041040
43.07 	0.034451 	4296 	0.033769
43.11 	0.035488 	4255 	0.035212
43.15 	0.042320 	4206 	0.041346
43.19 	0.038627 	4194 	0.038487
43.23 	0.046221 	4154 	0.045374
43.27 	0.033374 	4105 	0.032946
43.31 	0.037754 	4079 	0.037324
43.35 	0.034474 	4032 	0.034329
43.39 	0.040730 	4002 	0.040291
43.43 	0.042424 	3960 	0.041980
43.47 	0.034430 	3921 	0.034131
43.51 	0.036626 	3877 	0.036173
43.55 	0.038799 	2964 	0.038008
43.59 	0.035510 	1746 	0.035510
43.63 	0.032967 	1001 	0.032967
43.67 	0.033865 	502 	0.032698
43.71 	0.037657 	239 	0.037657
43.75 	0.062500 	16 	0.062500

File: 25SC_s1_0006.001.dat
#F C:\frames\spec\25SC_s1_0006.001
#C title =s:6 frm:1 25SC_s1
#C wavelength =0.15406

#S 1  fr_average C:\frames\spec\25SC_s1_0006.001 C:\win32app\speccom\mask.axs chi 0 180 0 360 0.02
#C 2 theta =0.000000 to 180 deg
#C   q   =0.000000 to 81.568 nm^-1
#C  chi  =0.000000 to 360 deg
#C collumns:
#C  1 position (2theta or chi in degrees)
#C  2 average intensity (sum of all counts in the region divided with number of pixels)
#C  3 Number of pixels in region)
#C  4 error (sum of sqrt(intensity) for all pixels divided by number)
#N 4
#L TTh  Int  N_pix  Err
32.99 	0.081967 	61 	0.081967
33.03 	0.062545 	1391 	0.061703
33.07 	0.051707 	2050 	0.050850
33.11 	0.057387 	2579 	0.056705
33.15 	0.058353 	2999 	0.057376
33.19 	0.062238 	3342 	0.061362
33.23 	0.055918 	3523 	0.055586
33.27 	0.058678 	3630 	0.057225
33.31 	0.068306 	3660 	0.066999
33.35 	0.059556 	3694 	0.058446
33.39 	0.069456 	3729 	0.068042
33.43 	0.054773 	3761 	0.053527
33.47 	0.055292 	3798 	0.054521
33.51 	0.058978 	3815 	0.057442
33.55 	0.052043 	3843 	0.051281
33.59 	0.062887 	3880 	0.061075
33.63 	0.055626 	3919 	0.055029
33.67 	0.052352 	3954 	0.051463
33.71 	0.061635 	3975 	0.061046
33.75 	0.064016 	3999 	0.063430
33.79 	0.058401 	4041 	0.057822
33.83 	0.054815 	4050 	0.054092
33.87 	0.062029 	4111 	0.060461
33.91 	0.060497 	4149 	0.059932
33.95 	0.056924 	4181 	0.055780
33.99 	0.065714 	4200 	0.064459
34.03 	0.055372 	4244 	0.054544
34.07 	0.061856 	4268 	0.060895
34.11 	0.055091 	4302 	0.054115
34.15 	0.056338 	4331 	0.055797
34.19 	0.063503 	4362 	0.061757
34.23 	0.054632 	4393 	0.053966
34.27 	0.057214 	4422 	0.056287
34.31 	0.053611 	4458 	0.052954
34.35 	0.056200 	4484 	0.055677
34.39 	0.059085 	4502 	0.058174
34.43 	0.051774 	4539 	0.051128
34.47 	0.059233 	4592 	0.058340
34.51 	0.053191 	4606 	0.052556
34.55 	0.056214 	4643 	0.055457
34.59 	0.056898 	4675 	0.056147
34.63 	0.058599 	4710 	0.057604
34.67 	0.055895 	4741 	0.055154
34.71 	0.050776 	4766 	0.050285
34.75 	0.070299 	4808 	0.069081
34.79 	0.056385 	4824 	0.055170
34.83 	0.060880 	4862 	0.060278
34.87 	0.055053 	4868 	0.053349
34.91 	0.057968 	4882 	0.057248
34.95 	0.054806 	4890 	0.053488
34.99 	0.053298 	4897 	0.052700
35.03 	0.058264 	4943 	0.057553
35.07 	0.055870 	4940 	0.055040
35.11 	0.060239 	4947 	0.059291
35.15 	0.059955 	4937 	0.059125
35.19 	0.059895 	4942 	0.058571
35.23 	0.057230 	4945 	0.056519
35.27 	0.059822 	4948 	0.058856
35.31 	0.056355 	4933 	0.054811
35.35 	0.053622 	4942 	0.052674
35.39 	0.055814 	4945 	0.055103
35.43 	0.055950 	4933 	0.054881
35.47 	0.058203 	4931 	0.057134
35.51 	0.060292 	4926 	0.059698
35.55 	0.063701 	4945 	0.062516
35.59 	0.057027 	4945 	0.055961
35.63 	0.056848 	4943 	0.056256
35.67 	0.059895 	4942 	0.059302
35.71 	0.057120 	4937 	0.056270
35.75 	0.060028 	4931 	0.058603
35.79 	0.059002 	4932 	0.058409
35.83 	0.057825 	4946 	0.056640
35.87 	0.060735 	4923 	0.060021
35.91 	0.061701 	4927 	0.060750
35.95 	0.055522 	4917 	0.054926
35.99 	0.060944 	4939 	0.059757
36.03 	0.060692 	4943 	0.059132
36.07 	0.061753 	4939 	0.060686
36.11 	0.060864 	4929 	0.059914
36.15 	0.062158 	4939 	0.061209
36.19 	0.058502 	4940 	0.057435
36.23 	0.060385 	4935 	0.059317
36.27 	0.058071 	4925 	0.057100
36.31 	0.059659 	4928 	0.058708
36.35 	0.055792 	4929 	0.055060
36.39 	0.058525 	4921 	0.057810
36.43 	0.059456 	4928 	0.058743
36.47 	0.060981 	4936 	0.060268
36.51 	0.055950 	4933 	0.055000
36.55 	0.064136 	4927 	0.063185
36.59 	0.056084 	4939 	0.055491
36.63 	0.057189 	4931 	0.056476
36.67 	0.053347 	4930 	0.052753
36.71 	0.063605 	4921 	0.062891
36.75 	0.055623 	4944 	0.055268
36.79 	0.061166 	4921 	0.060314
36.83 	0.063072 	4915 	0.061404
36.87 	0.054612 	4944 	0.053664
36.91 	0.054442 	4941 	0.053494
36.95 	0.051895 	4933 	0.051183
36.99 	0.060993 	4935 	0.060281
37.03 	0.063160 	4924 	0.061613
37.07 	0.062817 	4935 	0.061867
37.11 	0.056332 	4935 	0.055620
37.15 	0.058464 	4909 	0.057867
37.19 	0.061320 	4925 	0.060230
37.23 	0.056324 	4918 	0.055728
37.27 	0.061708 	4894 	0.060372
37.31 	0.053901 	4935 	0.052476
37.35 	0.057513 	4938 	0.056801
37.39 	0.054958 	4931 	0.054008
37.43 	0.060827 	4932 	0.059758
37.47 	0.055589 	4929 	0.054876
37.51 	0.059599 	4933 	0.058273
37.55 	0.054970 	4930 	0.054613
37.59 	0.053306 	4915 	0.052949
37.63 	0.052856 	4919 	0.052003
37.67 	0.057912 	4904 	0.056956
37.71 	0.059241 	4929 	0.058528
37.75 	0.053644 	4940 	0.052577
37.79 	0.055172 	4930 	0.054578
37.83 	0.051829 	4920 	0.051353
37.87 	0.051022 	4939 	0.050074
37.91 	0.051724 	4930 	0.050635
37.95 	0.048364 	4921 	0.047769
37.99 	0.054967 	4912 	0.054729
38.03 	0.058260 	4909 	0.057067
38.07 	0.051945 	4909 	0.051229
38.11 	0.046809 	4935 	0.046334
38.15 	0.057137 	4918 	0.056661
38.19 	0.055172 	4930 	0.054816
38.23 	0.055488 	4938 	0.054658
38.27 	0.055984 	4930 	0.054796
38.31 	0.056830 	4927 	0.055522
38.35 	0.058442 	4928 	0.057372
38.39 	0.063149 	4909 	0.061837
38.43 	0.065094 	4916 	0.064140
38.47 	0.072957 	4907 	0.071286
38.51 	0.066302 	4932 	0.064639
38.55 	0.076985 	4936 	0.075561
38.59 	0.077173 	4924 	0.074675
38.63 	0.081032 	4924 	0.078890
38.67 	0.077983 	4937 	0.076084
38.71 	0.068643 	4924 	0.066978
38.75 	0.073879 	4927 	0.072333
38.79 	0.063235 	4934 	0.062285
38.83 	0.061191 	4919 	0.060358
38.87 	0.053553 	4911 	0.053195
38.91 	0.052213 	4903 	0.051257
38.95 	0.059170 	4918 	0.058932
38.99 	0.051246 	4937 	0.049822
39.03 	0.048439 	4934 	0.047965
39.07 	0.050975 	4924 	0.050142
39.11 	0.050902 	4931 	0.050427
39.15 	0.049847 	4915 	0.049132
39.19 	0.044946 	4917 	0.044231
39.23 	0.048325 	4925 	0.047254
39.27 	0.041344 	4910 	0.041344
39.31 	0.044431 	4884 	0.043811
39.35 	0.047416 	4935 	0.047298
39.39 	0.041185 	4929 	0.040591
39.43 	0.048449 	4933 	0.047737
39.47 	0.045298 	4923 	0.044703
39.51 	0.041227 	4924 	0.040394
39.55 	0.044521 	4919 	0.043926
39.59 	0.044992 	4912 	0.044396
39.63 	0.042056 	4922 	0.041461
39.67 	0.044576 	4913 	0.043979
39.71 	0.042697 	4895 	0.042218
39.75 	0.041396 	4928 	0.040802
39.79 	0.045270 	4926 	0.044081
39.83 	0.047426 	4934 	0.046951
39.87 	0.045685 	4925 	0.044972
39.91 	0.040634 	4922 	0.040158
39.95 	0.050865 	4915 	0.050030
39.99 	0.045012 	4932 	0.044300
40.03 	0.049107 	4928 	0.048156
40.07 	0.043673 	4923 	0.042959
40.11 	0.044345 	4916 	0.043849
40.15 	0.046204 	4913 	0.045489
40.19 	0.042402 	4929 	0.042283
40.23 	0.042579 	4932 	0.042342
40.27 	0.040916 	4937 	0.040797
40.31 	0.043126 	4939 	0.042533
40.35 	0.035780 	4919 	0.035184
40.39 	0.046441 	4931 	0.045728
40.43 	0.042666 	4922 	0.042190
40.47 	0.041684 	4918 	0.040969
40.51 	0.039618 	4922 	0.039380
40.55 	0.045232 	4908 	0.044636
40.59 	0.036864 	4937 	0.036153
40.63 	0.047059 	4930 	0.046465
40.67 	0.040957 	4932 	0.040719
40.71 	0.041565 	4932 	0.041189
40.75 	0.042993 	4931 	0.042756
40.79 	0.039196 	4924 	0.038601
40.83 	0.041802 	4928 	0.041208
40.87 	0.043222 	4928 	0.042509
40.91 	0.037782 	4923 	0.036830
40.95 	0.044372 	4913 	0.043776
40.99 	0.048944 	4924 	0.048111
41.03 	0.045464 	4905 	0.044986
41.07 	0.045030 	4930 	0.044436
41.11 	0.041337 	4935 	0.040744
41.15 	0.044728 	4941 	0.044372
41.19 	0.038742 	4930 	0.038742
41.23 	0.043126 	4939 	0.042889
41.27 	0.042791 	4931 	0.042177
41.31 	0.043584 	4933 	0.043228
41.35 	0.042932 	4938 	0.042458
41.39 	0.040543 	4933 	0.040068
41.43 	0.046257 	4929 	0.045663
41.47 	0.043240 	4926 	0.042526
41.51 	0.043927 	4940 	0.043334
41.55 	0.038501 	4935 	0.037907
41.59 	0.039124 	4933 	0.038649
41.63 	0.040907 	4938 	0.039840
41.67 	0.041498 	4940 	0.041379
41.71 	0.042764 	4934 	0.042171
41.75 	0.039968 	4929 	0.039254
41.79 	0.040049 	4944 	0.039456
41.83 	0.039773 	4928 	0.039178
41.87 	0.046606 	4935 	0.045894
41.91 	0.039911 	4936 	0.039436
41.95 	0.043399 	4931 	0.042567
41.99 	0.042610 	4905 	0.042012
42.03 	0.042114 	4939 	0.041877
42.07 	0.035244 	4937 	0.035125
42.11 	0.042872 	4945 	0.042161
42.15 	0.038275 	4938 	0.038275
42.19 	0.042787 	4908 	0.042429
42.23 	0.038021 	4892 	0.037423
42.27 	0.039393 	4874 	0.038912
42.31 	0.038105 	4855 	0.037622
42.35 	0.041546 	4838 	0.041062
42.39 	0.042673 	4804 	0.042043
42.43 	0.039441 	4792 	0.038952
42.47 	0.037985 	4765 	0.037739
42.51 	0.038583 	4743 	0.038336
42.55 	0.040782 	4708 	0.040015
42.59 	0.042081 	4729 	0.041709
42.63 	0.036951 	4709 	0.036453
42.67 	0.043766 	4684 	0.043016
42.71 	0.041175 	4663 	0.040673
42.75 	0.045701 	4617 	0.045320
42.79 	0.038848 	4582 	0.038464
42.83 	0.040123 	4536 	0.039736
42.87 	0.036897 	4499 	0.036767
42.91 	0.035458 	4456 	0.035195
42.95 	0.038496 	4416 	0.037568
42.99 	0.039453 	4385 	0.039052
43.03 	0.044080 	4333 	0.043404
43.07 	0.041201 	4296 	0.040792
43.11 	0.037133 	4255 	0.036995
43.15 	0.037803 	4206 	0.037246
43.19 	0.037434 	4194 	0.037015
43.23 	0.036110 	4154 	0.035405
43.27 	0.037759 	4105 	0.037331
43.31 	0.043393 	4079 	0.042819
43.35 	0.042163 	4032 	0.041582
43.39 	0.040480 	4002 	0.039455
43.43 	0.042424 	3960 	0.041833
43.47 	0.038001 	3921 	0.037851
43.51 	0.035337 	3877 	0.035034
43.55 	0.042848 	2964 	0.042255
43.59 	0.035510 	1746 	0.034839
43.63 	0.039960 	1001 	0.039375
43.67 	0.049801 	502 	0.049801
43.71 	0.033473 	239 	0.033473
43.75 	0.062500 	16 	0.062500