Folder: Bessy-II-KMC-II-insitu-sin2psi/Example_Data (part 88)

File: 25SC_s1_0035.003.dat
#F C:\frames\spec\25SC_s1_0035.003
#C title =s:35 frm:3 25SC_s1
#C wavelength =0.15406

#S 1  fr_average C:\frames\spec\25SC_s1_0035.003 C:\win32app\speccom\mask.axs chi 0 180 0 360 0.02
#C 2 theta =0.000000 to 180 deg
#C   q   =0.000000 to 81.568 nm^-1
#C  chi  =0.000000 to 360 deg
#C collumns:
#C  1 position (2theta or chi in degrees)
#C  2 average intensity (sum of all counts in the region divided with number of pixels)
#C  3 Number of pixels in region)
#C  4 error (sum of sqrt(intensity) for all pixels divided by number)
#N 4
#L TTh  Int  N_pix  Err
32.99 	0.081967 	61 	0.072364
33.03 	0.049605 	1391 	0.049183
33.07 	0.065366 	2050 	0.063080
33.11 	0.061652 	2579 	0.061198
33.15 	0.054018 	2999 	0.053627
33.19 	0.054758 	3342 	0.054057
33.23 	0.063298 	3523 	0.061469
33.27 	0.060055 	3630 	0.058603
33.31 	0.054645 	3660 	0.054005
33.35 	0.060368 	3694 	0.059734
33.39 	0.064629 	3729 	0.062403
33.43 	0.058761 	3761 	0.057178
33.47 	0.058452 	3798 	0.057218
33.51 	0.060288 	3815 	0.058881
33.55 	0.053604 	3843 	0.052994
33.59 	0.061598 	3880 	0.060692
33.63 	0.059964 	3919 	0.058619
33.67 	0.056904 	3954 	0.056312
33.71 	0.066415 	3975 	0.065384
33.75 	0.065016 	3999 	0.063698
33.79 	0.064341 	4041 	0.062601
33.83 	0.054321 	4050 	0.053598
33.87 	0.062515 	4111 	0.061233
33.91 	0.065076 	4149 	0.063664
33.95 	0.054293 	4181 	0.053733
33.99 	0.061905 	4200 	0.060650
34.03 	0.056315 	4244 	0.055763
34.07 	0.057170 	4268 	0.055111
34.11 	0.056485 	4302 	0.055101
34.15 	0.054953 	4331 	0.054006
34.19 	0.052270 	4362 	0.051195
34.23 	0.058275 	4393 	0.057474
34.27 	0.057666 	4422 	0.057004
34.31 	0.063481 	4458 	0.062299
34.35 	0.057984 	4484 	0.057200
34.39 	0.056864 	4502 	0.055693
34.43 	0.051553 	4539 	0.050779
34.47 	0.055096 	4592 	0.054586
34.51 	0.057968 	4606 	0.056060
34.55 	0.058798 	4643 	0.058420
34.59 	0.059893 	4675 	0.058139
34.63 	0.057113 	4710 	0.055724
34.67 	0.061590 	4741 	0.060849
34.71 	0.055602 	4766 	0.055111
34.75 	0.064684 	4808 	0.063466
34.79 	0.061153 	4824 	0.059675
34.83 	0.049774 	4862 	0.049533
34.87 	0.057313 	4868 	0.056591
34.91 	0.057558 	4882 	0.056358
34.95 	0.058487 	4890 	0.057409
34.99 	0.056565 	4897 	0.055728
35.03 	0.055027 	4943 	0.054316
35.07 	0.060121 	4940 	0.059015
35.11 	0.060643 	4947 	0.059932
35.15 	0.058335 	4937 	0.057366
35.19 	0.058478 	4942 	0.057174
35.23 	0.059454 	4945 	0.058388
35.27 	0.058610 	4948 	0.057899
35.31 	0.053720 	4933 	0.053007
35.35 	0.054027 	4942 	0.053908
35.39 	0.054601 	4945 	0.053179
35.43 	0.057369 	4933 	0.056181
35.47 	0.052525 	4931 	0.052050
35.51 	0.062119 	4926 	0.061049
35.55 	0.054398 	4945 	0.053688
35.59 	0.055005 	4945 	0.054176
35.63 	0.056241 	4943 	0.055293
35.67 	0.047552 	4942 	0.047196
35.71 	0.061981 	4937 	0.061250
35.75 	0.054553 	4931 	0.053840
35.79 	0.057989 	4932 	0.056801
35.83 	0.051759 	4946 	0.050437
35.87 	0.058298 	4923 	0.057346
35.91 	0.058250 	4927 	0.057299
35.95 	0.062843 	4917 	0.061414
35.99 	0.052845 	4939 	0.051303
36.03 	0.062715 	4943 	0.061885
36.07 	0.060539 	4939 	0.059471
36.11 	0.058430 	4929 	0.057103
36.15 	0.062158 	4939 	0.060597
36.19 	0.051822 	4940 	0.051110
36.23 	0.061196 	4935 	0.059989
36.27 	0.056244 	4925 	0.055173
36.31 	0.058644 	4928 	0.057050
36.35 	0.057010 	4929 	0.055583
36.39 	0.055680 	4921 	0.054608
36.43 	0.051948 	4928 	0.051235
36.47 	0.057536 	4936 	0.056449
36.51 	0.057571 	4933 	0.056859
36.55 	0.058250 	4927 	0.057537
36.59 	0.052035 	4939 	0.051205
36.63 	0.055972 	4931 	0.054784
36.67 	0.058012 	4930 	0.057418
36.71 	0.052428 	4921 	0.051714
36.75 	0.055421 	4944 	0.054572
36.79 	0.054257 	4921 	0.053543
36.83 	0.050458 	4915 	0.049504
36.87 	0.048746 	4944 	0.048134
36.91 	0.055050 	4941 	0.054101
36.95 	0.053923 	4933 	0.052735
36.99 	0.056940 	4935 	0.056109
37.03 	0.058692 	4924 	0.057740
37.07 	0.050659 	4935 	0.050184
37.11 	0.051266 	4935 	0.050436
37.15 	0.056427 	4909 	0.055592
37.19 	0.054416 	4925 	0.053703
37.23 	0.058357 	4918 	0.057047
37.27 	0.055170 	4894 	0.053973
37.31 	0.059169 	4935 	0.057982
37.35 	0.052653 	4938 	0.051190
37.39 	0.053336 	4931 	0.052485
37.43 	0.052920 	4932 	0.052563
37.47 	0.059444 	4929 	0.058850
37.51 	0.052301 	4933 	0.051707
37.55 	0.054970 	4930 	0.053900
37.59 	0.050865 	4915 	0.049911
37.63 	0.050620 	4919 	0.050144
37.67 	0.047920 	4904 	0.047562
37.71 	0.049503 	4929 	0.048433
37.75 	0.049595 	4940 	0.048765
37.79 	0.051724 	4930 	0.050655
37.83 	0.053252 	4920 	0.052419
37.87 	0.058716 	4939 	0.057768
37.91 	0.047667 	4930 	0.046479
37.95 	0.044910 	4921 	0.044433
37.99 	0.051507 	4912 	0.051029
38.03 	0.053779 	4909 	0.053301
38.07 	0.057242 	4909 	0.055810
38.11 	0.052280 	4935 	0.051686
38.15 	0.051850 	4918 	0.051255
38.19 	0.055781 	4930 	0.054217
38.23 	0.054678 	4938 	0.054085
38.27 	0.058621 	4930 	0.057076
38.31 	0.058250 	4927 	0.057537
38.35 	0.061282 	4928 	0.060094
38.39 	0.059890 	4909 	0.058577
38.43 	0.057160 	4916 	0.056445
38.47 	0.060526 	4907 	0.059312
38.51 	0.062247 	4932 	0.061039
38.55 	0.059562 	4936 	0.058356
38.59 	0.057677 	4924 	0.057082
38.63 	0.059504 	4924 	0.058057
38.67 	0.054081 	4937 	0.053607
38.71 	0.053006 	4924 	0.052887
38.75 	0.047493 	4927 	0.046285
38.79 	0.054722 	4934 	0.053654
38.83 	0.050823 	4919 	0.050208
38.87 	0.049074 	4911 	0.048358
38.91 	0.051193 	4903 	0.050237
38.95 	0.048800 	4918 	0.047967
38.99 	0.046790 	4937 	0.046196
39.03 	0.044791 	4934 	0.044198
39.07 	0.048335 	4924 	0.047145
39.11 	0.047860 	4931 	0.047504
39.15 	0.046999 	4915 	0.045788
39.19 	0.054301 	4917 	0.053229
39.23 	0.044670 	4925 	0.043837
39.27 	0.044399 	4910 	0.044041
39.31 	0.052007 	4884 	0.051287
39.35 	0.052482 	4935 	0.051889
39.39 	0.044228 	4929 	0.043634
39.43 	0.041962 	4933 	0.041725
39.47 	0.045501 	4923 	0.045025
39.51 	0.049756 	4924 	0.049161
39.55 	0.049197 	4919 	0.048244
39.59 	0.046621 	4912 	0.045905
39.63 	0.052011 	4922 	0.050821
39.67 	0.050478 	4913 	0.050121
39.71 	0.050460 	4895 	0.049742
39.75 	0.047484 	4928 	0.046533
39.79 	0.047909 	4926 	0.047552
39.83 	0.046615 	4934 	0.046140
39.87 	0.054010 	4925 	0.053059
39.91 	0.048964 	4922 	0.048369
39.95 	0.046389 	4915 	0.045912
39.99 	0.050081 	4932 	0.049487
40.03 	0.046469 	4928 	0.046113
40.07 	0.048751 	4923 	0.047918
40.11 	0.046786 	4916 	0.046071
40.15 	0.042744 	4913 	0.042625
40.19 	0.041793 	4929 	0.041318
40.23 	0.049270 	4932 	0.048439
40.27 	0.046587 	4937 	0.046231
40.31 	0.045151 	4939 	0.044321
40.35 	0.044521 	4919 	0.043449
40.39 	0.046846 	4931 	0.045896
40.43 	0.046119 	4922 	0.045762
40.47 	0.046157 	4918 	0.045561
40.51 	0.045510 	4922 	0.044320
40.55 	0.037286 	4908 	0.036809
40.59 	0.040308 	4937 	0.039952
40.63 	0.046450 	4930 	0.045737
40.67 	0.040957 	4932 	0.040482
40.71 	0.043187 	4932 	0.042712
40.75 	0.043602 	4931 	0.043364
40.79 	0.045085 	4924 	0.044490
40.83 	0.043425 	4928 	0.042950
40.87 	0.042005 	4928 	0.041173
40.91 	0.042860 	4923 	0.042503
40.95 	0.044372 	4913 	0.043895
40.99 	0.043867 	4924 	0.043272
41.03 	0.046075 	4905 	0.045598
41.07 	0.045233 	4930 	0.045233
41.11 	0.038906 	4935 	0.038668
41.15 	0.043513 	4941 	0.042802
41.19 	0.041176 	4930 	0.040701
41.23 	0.040292 	4939 	0.039699
41.27 	0.042993 	4931 	0.042518
41.31 	0.043179 	4933 	0.042347
41.35 	0.041920 	4938 	0.041564
41.39 	0.043381 	4933 	0.042906
41.43 	0.044837 	4929 	0.043985
41.47 	0.042022 	4926 	0.041903
41.51 	0.045547 	4940 	0.044479
41.55 	0.041540 	4935 	0.041184
41.59 	0.038111 	4933 	0.038111
41.63 	0.044147 	4938 	0.043910
41.67 	0.045344 	4940 	0.044870
41.71 	0.038914 	4934 	0.038439
41.75 	0.039765 	4929 	0.039170
41.79 	0.044094 	4944 	0.043738
41.83 	0.040990 	4928 	0.040634
41.87 	0.041135 	4935 	0.040660
41.91 	0.051864 	4936 	0.051152
41.95 	0.038937 	4931 	0.038106
41.99 	0.043221 	4905 	0.042982
42.03 	0.046163 	4939 	0.045452
42.07 	0.042941 	4937 	0.042466
42.11 	0.042669 	4945 	0.042551
42.15 	0.042730 	4938 	0.042374
42.19 	0.041361 	4908 	0.041242
42.23 	0.040065 	4892 	0.039706
42.27 	0.044932 	4874 	0.044091
42.31 	0.039753 	4855 	0.039150
42.35 	0.041133 	4838 	0.040891
42.39 	0.041424 	4804 	0.040936
42.43 	0.040484 	4792 	0.040362
42.47 	0.042392 	4765 	0.041901
42.51 	0.045752 	4743 	0.045628
42.55 	0.040357 	4708 	0.040232
42.59 	0.043350 	4729 	0.042978
42.63 	0.042047 	4709 	0.041176
42.67 	0.048249 	4684 	0.047749
42.71 	0.040746 	4663 	0.040118
42.75 	0.042019 	4617 	0.041257
42.79 	0.043213 	4582 	0.042446
42.83 	0.043210 	4536 	0.042952
42.87 	0.036675 	4499 	0.036284
42.91 	0.044883 	4456 	0.043963
42.95 	0.042572 	4416 	0.042042
42.99 	0.037400 	4385 	0.036732
43.03 	0.043157 	4333 	0.042346
43.07 	0.043296 	4296 	0.042751
43.11 	0.038778 	4255 	0.038365
43.15 	0.040418 	4206 	0.040140
43.19 	0.042680 	4194 	0.042261
43.23 	0.038036 	4154 	0.037190
43.27 	0.043362 	4105 	0.043076
43.31 	0.037754 	4079 	0.037324
43.35 	0.040923 	4032 	0.040777
43.39 	0.038231 	4002 	0.038085
43.43 	0.034848 	3960 	0.034553
43.47 	0.038001 	3921 	0.037552
43.51 	0.035595 	3877 	0.035141
43.55 	0.039474 	2964 	0.038881
43.59 	0.039519 	1746 	0.038512
43.63 	0.040959 	1001 	0.039789
43.67 	0.029880 	502 	0.027547
43.71 	0.029289 	239 	0.029289
43.75 	0.062500 	16 	0.062500

File: 25SC_s1_0035.004.dat
#F C:\frames\spec\25SC_s1_0035.004
#C title =s:35 frm:4 25SC_s1
#C wavelength =0.15406

#S 1  fr_average C:\frames\spec\25SC_s1_0035.004 C:\win32app\speccom\mask.axs chi 0 180 0 360 0.02
#C 2 theta =0.000000 to 180 deg
#C   q   =0.000000 to 81.568 nm^-1
#C  chi  =0.000000 to 360 deg
#C collumns:
#C  1 position (2theta or chi in degrees)
#C  2 average intensity (sum of all counts in the region divided with number of pixels)
#C  3 Number of pixels in region)
#C  4 error (sum of sqrt(intensity) for all pixels divided by number)
#N 4
#L TTh  Int  N_pix  Err
32.99 	0.114754 	61 	0.114754
33.03 	0.047448 	1391 	0.046606
33.07 	0.058049 	2050 	0.056620
33.11 	0.056611 	2579 	0.055930
33.15 	0.056686 	2999 	0.056295
33.19 	0.060742 	3342 	0.060216
33.23 	0.055918 	3523 	0.055253
33.27 	0.057025 	3630 	0.056379
33.31 	0.057650 	3660 	0.056050
33.35 	0.058473 	3694 	0.057522
33.39 	0.054706 	3729 	0.053450
33.43 	0.056900 	3761 	0.055498
33.47 	0.053449 	3798 	0.053295
33.51 	0.059764 	3815 	0.057436
33.55 	0.057767 	3843 	0.057158
33.59 	0.061598 	3880 	0.059937
33.63 	0.064047 	3919 	0.063449
33.67 	0.052352 	3954 	0.051315
33.71 	0.062138 	3975 	0.061107
33.75 	0.061765 	3999 	0.061033
33.79 	0.063598 	4041 	0.062293
33.83 	0.060741 	4050 	0.060018
33.87 	0.057893 	4111 	0.056730
33.91 	0.058809 	4149 	0.057962
33.95 	0.059794 	4181 	0.058510
33.99 	0.059286 	4200 	0.058449
34.03 	0.056550 	4244 	0.055998
34.07 	0.061387 	4268 	0.060701
34.11 	0.053696 	4302 	0.053015
34.15 	0.056569 	4331 	0.055352
34.19 	0.055708 	4362 	0.054903
34.23 	0.060096 	4393 	0.059296
34.27 	0.061058 	4422 	0.059999
34.31 	0.058098 	4458 	0.056784
34.35 	0.061106 	4484 	0.059669
34.39 	0.061972 	4502 	0.060108
34.43 	0.065874 	4539 	0.064712
34.47 	0.055749 	4592 	0.054984
34.51 	0.060139 	4606 	0.058994
34.55 	0.062675 	4643 	0.061035
34.59 	0.059251 	4675 	0.058249
34.63 	0.051168 	4710 	0.050546
34.67 	0.059692 	4741 	0.059321
34.71 	0.049727 	4766 	0.049359
34.75 	0.052621 	4808 	0.052255
34.79 	0.059909 	4824 	0.058937
34.83 	0.053270 	4862 	0.051323
34.87 	0.052999 	4868 	0.052277
34.91 	0.052642 	4882 	0.051922
34.95 	0.055010 	4890 	0.054291
34.99 	0.057790 	4897 	0.056594
35.03 	0.057253 	4943 	0.056186
35.07 	0.052834 	4940 	0.051885
35.11 	0.055387 	4947 	0.054558
35.15 	0.060361 	4937 	0.059155
35.19 	0.057062 	4942 	0.055877
35.23 	0.050354 	4945 	0.050117
35.27 	0.055982 	4948 	0.055153
35.31 	0.055747 	4933 	0.055035
35.35 	0.062323 	4942 	0.060782
35.39 	0.064307 	4945 	0.063478
35.43 	0.065477 	4933 	0.064052
35.47 	0.059420 	4931 	0.058470
35.51 	0.057653 	4926 	0.056801
35.55 	0.055814 	4945 	0.054985
35.59 	0.061072 	4945 	0.060598
35.63 	0.054623 	4943 	0.053556
35.67 	0.056657 	4942 	0.055709
35.71 	0.055297 	4937 	0.054703
35.75 	0.059014 	4931 	0.057232
35.79 	0.056367 	4932 	0.054922
35.83 	0.057218 	4946 	0.056626
35.87 	0.063579 	4923 	0.062389
35.91 	0.059468 	4927 	0.058279
35.95 	0.054505 	4917 	0.053532
35.99 	0.056287 	4939 	0.055931
36.03 	0.052397 	4943 	0.052042
36.07 	0.061348 	4939 	0.059688
36.11 	0.053358 	4929 	0.052645
36.15 	0.056894 	4939 	0.055708
36.19 	0.058704 	4940 	0.057874
36.23 	0.061601 	4935 	0.060295
36.27 	0.057462 	4925 	0.056154
36.31 	0.054789 	4928 	0.054076
36.35 	0.054169 	4929 	0.053813
36.39 	0.058321 	4921 	0.056893
36.43 	0.054383 	4928 	0.053551
36.47 	0.064222 	4936 	0.062917
36.51 	0.057977 	4933 	0.057027
36.55 	0.051147 	4927 	0.050790
36.59 	0.059324 	4939 	0.058256
36.63 	0.056986 	4931 	0.055680
36.67 	0.054767 	4930 	0.053935
36.71 	0.061573 	4921 	0.060144
36.75 	0.050162 	4944 	0.049688
36.79 	0.049380 	4921 	0.048666
36.83 	0.053917 	4915 	0.053321
36.87 	0.049757 	4944 	0.049165
36.91 	0.056264 	4941 	0.055197
36.95 	0.056761 	4933 	0.055573
36.99 	0.052280 	4935 	0.051311
37.03 	0.048538 	4924 	0.047824
37.07 	0.051064 	4935 	0.049996
37.11 	0.048227 	4935 	0.047633
37.15 	0.051742 	4909 	0.051264
37.19 	0.055635 	4925 	0.054921
37.23 	0.052460 	4918 	0.051865
37.27 	0.062730 	4894 	0.062131
37.31 	0.049848 	4935 	0.049136
37.35 	0.053463 	4938 	0.052633
37.39 	0.054350 	4931 	0.053756
37.43 	0.048054 	4932 	0.047460
37.47 	0.057212 	4929 	0.056004
37.51 	0.049260 	4933 	0.048310
37.55 	0.057404 	4930 	0.056334
37.59 	0.055341 	4915 	0.054387
37.63 	0.055296 	4919 	0.054343
37.67 	0.053834 	4904 	0.052639
37.71 	0.052749 	4929 	0.051917
37.75 	0.052834 	4940 	0.052123
37.79 	0.053550 	4930 	0.052718
37.83 	0.053252 	4920 	0.052180
37.87 	0.055477 	4939 	0.054528
37.91 	0.056187 	4930 	0.055236
37.95 	0.049177 	4921 	0.048225
37.99 	0.052932 	4912 	0.052335
38.03 	0.058668 	4909 	0.057832
38.07 	0.060094 	4909 	0.058781
38.11 	0.058156 	4935 	0.056494
38.15 	0.055714 	4918 	0.054523
38.19 	0.055984 	4930 	0.055152
38.23 	0.055083 	4938 	0.054253
38.27 	0.061866 	4930 	0.060559
38.31 	0.063122 	4927 	0.062170
38.35 	0.059659 	4928 	0.058827
38.39 	0.069057 	4909 	0.068102
38.43 	0.068959 	4916 	0.067866
38.47 	0.066843 	4907 	0.066127
38.51 	0.070762 	4932 	0.069218
38.55 	0.062804 	4936 	0.061617
38.59 	0.060114 	4924 	0.059162
38.63 	0.058083 	4924 	0.057131
38.67 	0.062791 	4937 	0.061961
38.71 	0.052803 	4924 	0.051732
38.75 	0.057642 	4927 	0.056809
38.79 	0.056952 	4934 	0.056239
38.83 	0.052043 	4919 	0.050714
38.87 	0.048870 	4911 	0.048035
38.91 	0.054252 	4903 	0.053177
38.95 	0.048394 	4918 	0.048036
38.99 	0.048410 	4937 	0.048054
39.03 	0.051885 	4934 	0.050935
39.07 	0.053412 	4924 	0.052579
39.11 	0.047252 	4931 	0.047014
39.15 	0.051068 	4915 	0.050234
39.19 	0.056335 	4917 	0.054866
39.23 	0.052183 	4925 	0.051707
39.27 	0.053564 	4910 	0.051894
39.31 	0.050573 	4884 	0.049734
39.35 	0.049443 	4935 	0.048236
39.39 	0.052749 	4929 	0.051917
39.43 	0.054733 	4933 	0.054140
39.47 	0.059110 	4923 	0.057782
39.51 	0.051584 	4924 	0.051465
39.55 	0.060988 	4919 	0.059440
39.59 	0.055782 	4912 	0.054947
39.63 	0.058716 	4922 	0.057407
39.67 	0.051089 	4913 	0.050612
39.71 	0.059448 	4895 	0.058252
39.75 	0.052354 	4928 	0.051284
39.79 	0.053796 	4926 	0.053439
39.83 	0.054114 	4934 	0.053165
39.87 	0.055635 	4925 	0.055040
39.91 	0.055872 	4922 	0.054681
39.95 	0.054527 	4915 	0.053335
39.99 	0.052514 	4932 	0.052039
40.03 	0.047281 	4928 	0.046687
40.07 	0.047938 	4923 	0.047224
40.11 	0.057974 	4916 	0.057021
40.15 	0.057602 	4913 	0.056648
40.19 	0.051938 	4929 	0.051086
40.23 	0.050487 	4932 	0.049536
40.27 	0.056512 	4937 	0.055444
40.31 	0.053857 	4939 	0.053145
40.35 	0.055702 	4919 	0.054988
40.39 	0.053539 	4931 	0.052351
40.43 	0.050183 	4922 	0.049350
40.47 	0.053274 	4918 	0.051844
40.51 	0.054043 	4922 	0.052972
40.55 	0.052975 	4908 	0.052617
40.59 	0.049828 	4937 	0.049116
40.63 	0.053955 	4930 	0.053005
40.67 	0.049676 	4932 	0.048607
40.71 	0.051298 	4932 	0.050704
40.75 	0.053133 	4931 	0.051826
40.79 	0.056052 	4924 	0.054386
40.83 	0.052760 	4928 	0.051571
40.87 	0.047078 	4928 	0.046602
40.91 	0.054641 	4923 	0.053928
40.95 	0.049257 	4913 	0.048422
40.99 	0.050772 	4924 	0.049681
41.03 	0.044648 	4905 	0.044051
41.07 	0.052535 	4930 	0.052060
41.11 	0.049645 	4935 	0.049171
41.15 	0.042704 	4941 	0.042092
41.19 	0.053144 	4930 	0.052431
41.23 	0.053047 	4939 	0.051693
41.27 	0.049686 	4931 	0.049092
41.31 	0.046625 	4933 	0.045675
41.35 	0.049210 	4938 	0.048261
41.39 	0.053112 	4933 	0.051687
41.43 	0.048489 	4929 	0.047657
41.47 	0.048721 	4926 	0.048483
41.51 	0.049190 	4940 	0.048479
41.55 	0.044377 	4935 	0.043902
41.59 	0.054125 	4933 	0.052819
41.63 	0.050020 	4938 	0.049190
41.67 	0.052632 	4940 	0.051446
41.71 	0.048845 	4934 	0.048370
41.75 	0.045851 	4929 	0.045000
41.79 	0.047735 	4944 	0.047024
41.83 	0.049513 	4928 	0.048800
41.87 	0.049037 	4935 	0.047831
41.91 	0.047407 	4936 	0.047288
41.95 	0.050700 	4931 	0.049749
41.99 	0.043425 	4905 	0.042947
42.03 	0.048795 	4939 	0.047728
42.07 	0.047600 	4937 	0.046769
42.11 	0.050758 	4945 	0.049436
42.15 	0.044552 	4938 	0.044197
42.19 	0.049104 	4908 	0.048387
42.23 	0.045789 	4892 	0.045190
42.27 	0.043496 	4874 	0.042775
42.31 	0.047992 	4855 	0.047147
42.35 	0.048574 	4838 	0.047968
42.39 	0.039342 	4804 	0.038976
42.43 	0.045910 	4792 	0.045910
42.47 	0.052466 	4765 	0.052097
42.51 	0.041746 	4743 	0.041622
42.55 	0.048216 	4708 	0.047967
42.59 	0.041446 	4729 	0.040579
42.63 	0.048206 	4709 	0.047957
42.67 	0.048463 	4684 	0.047567
42.71 	0.040961 	4663 	0.040584
42.75 	0.040936 	4617 	0.040301
42.79 	0.047141 	4582 	0.045863
42.83 	0.042108 	4536 	0.041591
42.87 	0.048677 	4499 	0.047506
42.91 	0.044659 	4456 	0.044265
42.95 	0.046875 	4416 	0.046212
42.99 	0.047206 	4385 	0.046672
43.03 	0.046388 	4333 	0.045712
43.07 	0.048650 	4296 	0.048241
43.11 	0.047709 	4255 	0.046607
43.15 	0.051831 	4206 	0.051134
43.19 	0.040773 	4194 	0.040354
43.23 	0.043813 	4154 	0.043108
43.27 	0.048965 	4105 	0.048108
43.31 	0.046090 	4079 	0.045515
43.35 	0.042659 	4032 	0.042223
43.39 	0.048226 	4002 	0.047470
43.43 	0.047727 	3960 	0.047727
43.47 	0.048457 	3921 	0.048009
43.51 	0.043590 	3877 	0.043439
43.55 	0.037449 	2964 	0.037252
43.59 	0.041237 	1746 	0.040566
43.63 	0.041958 	1001 	0.041373
43.67 	0.035857 	502 	0.034690
43.71 	0.033473 	239 	0.033473
43.75 	0.000000 	16 	0.000000