Folder: Bessy-II-KMC-II-insitu-sin2psi/Example_Data (part 4)

File: 25SC_s1_0002.005.dat
#F C:\frames\spec\25SC_s1_0002.005
#C title =s:2 frm:5 25SC_s1
#C wavelength =0.15406

#S 1  fr_average C:\frames\spec\25SC_s1_0002.005 C:\win32app\speccom\mask.axs chi 0 180 0 360 0.02
#C 2 theta =0.000000 to 180 deg
#C   q   =0.000000 to 81.568 nm^-1
#C  chi  =0.000000 to 360 deg
#C collumns:
#C  1 position (2theta or chi in degrees)
#C  2 average intensity (sum of all counts in the region divided with number of pixels)
#C  3 Number of pixels in region)
#C  4 error (sum of sqrt(intensity) for all pixels divided by number)
#N 4
#L TTh  Int  N_pix  Err
32.99 	0.065574 	61 	0.065574
33.03 	0.074047 	1391 	0.072715
33.07 	0.069756 	2050 	0.068899
33.11 	0.075223 	2579 	0.073860
33.15 	0.072357 	2999 	0.070795
33.19 	0.076900 	3342 	0.075673
33.23 	0.059041 	3523 	0.057212
33.27 	0.063636 	3630 	0.062507
33.31 	0.073497 	3660 	0.071577
33.35 	0.067407 	3694 	0.066455
33.39 	0.075623 	3729 	0.073215
33.43 	0.067801 	3761 	0.066555
33.47 	0.073986 	3798 	0.072752
33.51 	0.073132 	3815 	0.071136
33.55 	0.073901 	3843 	0.072351
33.59 	0.076804 	3880 	0.075143
33.63 	0.068895 	3919 	0.067400
33.67 	0.065250 	3954 	0.064658
33.71 	0.084528 	3975 	0.082023
33.75 	0.076769 	3999 	0.075451
33.79 	0.067558 	4041 	0.065939
33.83 	0.073333 	4050 	0.072176
33.87 	0.065434 	4111 	0.064271
33.91 	0.069414 	4149 	0.068285
33.95 	0.067209 	4181 	0.065785
33.99 	0.071905 	4200 	0.070650
34.03 	0.066682 	4244 	0.065578
34.07 	0.066073 	4268 	0.064975
34.11 	0.066481 	4302 	0.065505
34.15 	0.081275 	4331 	0.079088
34.19 	0.069922 	4362 	0.068557
34.23 	0.072843 	4393 	0.070843
34.27 	0.080507 	4422 	0.077549
34.31 	0.065725 	4458 	0.065068
34.35 	0.065566 	4484 	0.064913
34.39 	0.070635 	4502 	0.069855
34.43 	0.068958 	4539 	0.067796
34.47 	0.070340 	4592 	0.069064
34.51 	0.070560 	4606 	0.069119
34.55 	0.079259 	4643 	0.077367
34.59 	0.071658 	4675 	0.069883
34.63 	0.068153 	4710 	0.066785
34.67 	0.073191 	4741 	0.071709
34.71 	0.075955 	4766 	0.073742
34.75 	0.068220 	4808 	0.067001
34.79 	0.064055 	4824 	0.062962
34.83 	0.081448 	4862 	0.078637
34.87 	0.066968 	4868 	0.065765
34.91 	0.074355 	4882 	0.072175
34.95 	0.067076 	4890 	0.065758
34.99 	0.068409 	4897 	0.067692
35.03 	0.069998 	4943 	0.068102
35.07 	0.073279 	4940 	0.072568
35.11 	0.065696 	4947 	0.064394
35.15 	0.069678 	4937 	0.068017
35.19 	0.073250 	4942 	0.072045
35.23 	0.073205 	4945 	0.071073
35.27 	0.079830 	4948 	0.078410
35.31 	0.071356 	4933 	0.069694
35.35 	0.065561 	4942 	0.064257
35.39 	0.079879 	4945 	0.077490
35.43 	0.072572 	4933 	0.070672
35.47 	0.073413 	4931 	0.071988
35.51 	0.069631 	4926 	0.067966
35.55 	0.063701 	4945 	0.062161
35.59 	0.074216 	4945 	0.072558
35.63 	0.076472 	4943 	0.075287
35.67 	0.078713 	4942 	0.077291
35.71 	0.071501 	4937 	0.070176
35.75 	0.078077 	4931 	0.075108
35.79 	0.076034 	4932 	0.074114
35.83 	0.083906 	4946 	0.081854
35.87 	0.071907 	4923 	0.070479
35.91 	0.078547 	4927 	0.076644
35.95 	0.069555 	4917 	0.068244
35.99 	0.071674 	4939 	0.070370
36.03 	0.064536 	4943 	0.063351
36.07 	0.072687 	4939 	0.071026
36.11 	0.080138 	4929 	0.078831
36.15 	0.073092 	4939 	0.071787
36.19 	0.065385 	4940 	0.064080
36.23 	0.077609 	4935 	0.076066
36.27 	0.077360 	4925 	0.075576
36.31 	0.069399 	4928 	0.067597
36.35 	0.075066 	4929 	0.074353
36.39 	0.070514 	4921 	0.069562
36.43 	0.066964 	4928 	0.066132
36.47 	0.070908 	4936 	0.070077
36.51 	0.074194 	4933 	0.071938
36.55 	0.067384 	4927 	0.066908
36.59 	0.075116 	4939 	0.073575
36.63 	0.070574 	4931 	0.069267
36.67 	0.073834 	4930 	0.072388
36.71 	0.063199 	4921 	0.062108
36.75 	0.068770 	4944 	0.067941
36.79 	0.068279 	4921 	0.066850
36.83 	0.071414 	4915 	0.069815
36.87 	0.071602 	4944 	0.069924
36.91 	0.073669 	4941 	0.072128
36.95 	0.069329 	4933 	0.068617
36.99 	0.069706 	4935 	0.068400
37.03 	0.068643 	4924 	0.067811
37.07 	0.070314 	4935 	0.068652
37.11 	0.070517 	4935 	0.069567
37.15 	0.065594 	4909 	0.065236
37.19 	0.071066 	4925 	0.069877
37.23 	0.067710 	4918 	0.066281
37.27 	0.065182 	4894 	0.063865
37.31 	0.065653 	4935 	0.064823
37.35 	0.071689 	4938 	0.069791
37.39 	0.065707 	4931 	0.064638
37.43 	0.069546 	4932 	0.067527
37.47 	0.081152 	4929 	0.079707
37.51 	0.064261 	4933 	0.062678
37.55 	0.065923 	4930 	0.064854
37.59 	0.064903 	4915 	0.062877
37.63 	0.061395 	4919 	0.060561
37.67 	0.064845 	4904 	0.063531
37.71 	0.065328 	4929 	0.064020
37.75 	0.063158 	4940 	0.061972
37.79 	0.059635 	4930 	0.058447
37.83 	0.065041 	4920 	0.064326
37.87 	0.062968 	4939 	0.061901
37.91 	0.068966 	4930 	0.066946
37.95 	0.067872 	4921 	0.066444
37.99 	0.061075 	4912 	0.059386
38.03 	0.063149 	4909 	0.062195
38.07 	0.061520 	4909 	0.060326
38.11 	0.057751 	4935 	0.057157
38.15 	0.068727 	4918 	0.067893
38.19 	0.068154 	4930 	0.066966
38.23 	0.066221 	4938 	0.064798
38.27 	0.067951 	4930 	0.066288
38.31 	0.074690 	4927 	0.073264
38.35 	0.072037 	4928 	0.070373
38.39 	0.073742 	4909 	0.072549
38.43 	0.080553 	4916 	0.078101
38.47 	0.073568 	4907 	0.072375
38.51 	0.082725 	4932 	0.081419
38.55 	0.084076 	4936 	0.082415
38.59 	0.075548 	4924 	0.073863
38.63 	0.066816 	4924 	0.065507
38.67 	0.069475 	4937 	0.067795
38.71 	0.066206 	4924 	0.065849
38.75 	0.068602 	4927 	0.067650
38.79 	0.062019 	4934 	0.060950
38.83 	0.065460 	4919 	0.064151
38.87 	0.062716 	4911 	0.060927
38.91 	0.060575 	4903 	0.059858
38.95 	0.061407 	4918 	0.060454
38.99 	0.062386 	4937 	0.061793
39.03 	0.064653 	4934 	0.063585
39.07 	0.060114 	4924 	0.058686
39.11 	0.054350 	4931 	0.053400
39.15 	0.054934 	4915 	0.053722
39.19 	0.057149 	4917 	0.056791
39.23 	0.062335 	4925 	0.061383
39.27 	0.054990 	4910 	0.053916
39.31 	0.052416 	4884 	0.051576
39.35 	0.054103 	4935 	0.052798
39.39 	0.060661 	4929 	0.059711
39.43 	0.052504 	4933 	0.052029
39.47 	0.053220 	4923 	0.052625
39.51 	0.059098 	4924 	0.058147
39.55 	0.057532 	4919 	0.056937
39.59 	0.051507 	4912 	0.050433
39.63 	0.061764 	4922 	0.060454
39.67 	0.056177 	4913 	0.055462
39.71 	0.058223 	4895 	0.057026
39.75 	0.063312 	4928 	0.062242
39.79 	0.058668 	4926 	0.057955
39.83 	0.053506 	4934 	0.052556
39.87 	0.058680 	4925 	0.057491
39.91 	0.052621 	4922 	0.051669
39.95 	0.058189 	4915 	0.057236
39.99 	0.059002 	4932 	0.057933
40.03 	0.057427 	4928 	0.056595
40.07 	0.055048 	4923 	0.054572
40.11 	0.056753 	4916 	0.056515
40.15 	0.051089 	4913 	0.050016
40.19 	0.059241 	4929 	0.058528
40.23 	0.052109 	4932 	0.051515
40.27 	0.050233 	4937 	0.049284
40.31 	0.052440 	4939 	0.051590
40.35 	0.050213 	4919 	0.049499
40.39 	0.057798 	4931 	0.057085
40.43 	0.057294 	4922 	0.056223
40.47 	0.049207 	4918 	0.048850
40.51 	0.051199 	4922 	0.050366
40.55 	0.051141 	4908 	0.050186
40.59 	0.053676 	4937 	0.052846
40.63 	0.048682 	4930 	0.047850
40.67 	0.057380 	4932 	0.056311
40.71 	0.054947 	4932 	0.054096
40.75 	0.052525 	4931 	0.051337
40.79 	0.057474 	4924 	0.056760
40.83 	0.054586 	4928 	0.053873
40.87 	0.057630 	4928 	0.057154
40.91 	0.050376 	4923 	0.049543
40.95 	0.060655 	4913 	0.059582
40.99 	0.059911 	4924 	0.058820
41.03 	0.052599 	4905 	0.051525
41.07 	0.051927 	4930 	0.051095
41.11 	0.049443 	4935 	0.048731
41.15 	0.047359 	4941 	0.046648
41.19 	0.053753 	4930 	0.053277
41.23 	0.050213 	4939 	0.049382
41.27 	0.049483 	4931 	0.048770
41.31 	0.054328 	4933 	0.053616
41.35 	0.051843 	4938 	0.051368
41.39 	0.053923 	4933 	0.052854
41.43 	0.051126 	4929 	0.050532
41.47 	0.053390 	4926 	0.052300
41.51 	0.051619 	4940 	0.050770
41.55 	0.044985 	4935 	0.044510
41.59 	0.053112 	4933 	0.052518
41.63 	0.047793 	4938 	0.047437
41.67 	0.056478 	4940 	0.055766
41.71 	0.050061 	4934 	0.049467
41.75 	0.051329 	4929 	0.050378
41.79 	0.050971 	4944 	0.049786
41.83 	0.042411 	4928 	0.041698
41.87 	0.049645 	4935 	0.049270
41.91 	0.053079 	4936 	0.052130
41.95 	0.048874 	4931 	0.048399
41.99 	0.055454 	4905 	0.054498
42.03 	0.050618 	4939 	0.049669
42.07 	0.045372 	4937 	0.044640
42.11 	0.046714 	4945 	0.046003
42.15 	0.056703 	4938 	0.055398
42.19 	0.046659 	4908 	0.046062
42.23 	0.050082 	4892 	0.049603
42.27 	0.054780 	4874 	0.053198
42.31 	0.048404 	4855 	0.047680
42.35 	0.054155 	4838 	0.053549
42.39 	0.047044 	4804 	0.046434
42.43 	0.055509 	4792 	0.054776
42.47 	0.050787 	4765 	0.050049
42.51 	0.050601 	4743 	0.049736
42.55 	0.050977 	4708 	0.049982
42.59 	0.049482 	4729 	0.048986
42.63 	0.043534 	4709 	0.043160
42.67 	0.044833 	4684 	0.044208
42.71 	0.052756 	4663 	0.051730
42.75 	0.048733 	4617 	0.048479
42.79 	0.053034 	4582 	0.052394
42.83 	0.050265 	4536 	0.049748
42.87 	0.049567 	4499 	0.048655
42.91 	0.058124 	4456 	0.056809
42.95 	0.047781 	4416 	0.046698
42.99 	0.052452 	4385 	0.051784
43.03 	0.043388 	4333 	0.042712
43.07 	0.049581 	4296 	0.049036
43.11 	0.049824 	4255 	0.049273
43.15 	0.051593 	4206 	0.050897
43.19 	0.042680 	4194 	0.042401
43.23 	0.047906 	4154 	0.047201
43.27 	0.044336 	4105 	0.044051
43.31 	0.049032 	4079 	0.048026
43.35 	0.046627 	4032 	0.045901
43.39 	0.042479 	4002 	0.041893
43.43 	0.045707 	3960 	0.044820
43.47 	0.047692 	3921 	0.047393
43.51 	0.049523 	3877 	0.049070
43.55 	0.047908 	2964 	0.047908
43.59 	0.035510 	1746 	0.035174
43.63 	0.040959 	1001 	0.040959
43.67 	0.039841 	502 	0.039841
43.71 	0.054393 	239 	0.054393
43.75 	0.000000 	16 	0.000000

File: 25SC_s1_0002.006.dat
#F C:\frames\spec\25SC_s1_0002.006
#C title =s:2 frm:6 25SC_s1
#C wavelength =0.15406

#S 1  fr_average C:\frames\spec\25SC_s1_0002.006 C:\win32app\speccom\mask.axs chi 0 180 0 360 0.02
#C 2 theta =0.000000 to 180 deg
#C   q   =0.000000 to 81.568 nm^-1
#C  chi  =0.000000 to 360 deg
#C collumns:
#C  1 position (2theta or chi in degrees)
#C  2 average intensity (sum of all counts in the region divided with number of pixels)
#C  3 Number of pixels in region)
#C  4 error (sum of sqrt(intensity) for all pixels divided by number)
#N 4
#L TTh  Int  N_pix  Err
32.99 	0.098361 	61 	0.098361
33.03 	0.064702 	1391 	0.062596
33.07 	0.080976 	2050 	0.079261
33.11 	0.063978 	2579 	0.063070
33.15 	0.074358 	2999 	0.072991
33.19 	0.074506 	3342 	0.072725
33.23 	0.062163 	3523 	0.060279
33.27 	0.076860 	3630 	0.075569
33.31 	0.074590 	3660 	0.072510
33.35 	0.069302 	3694 	0.067874
33.39 	0.067042 	3729 	0.065942
33.43 	0.077373 	3761 	0.075167
33.47 	0.070563 	3798 	0.068070
33.51 	0.064220 	3815 	0.063452
33.55 	0.072339 	3843 	0.071730
33.59 	0.065464 	3880 	0.064256
33.63 	0.071192 	3919 	0.070295
33.67 	0.078655 	3954 	0.077321
33.71 	0.057610 	3975 	0.056223
33.75 	0.071018 	3999 	0.069406
33.79 	0.075724 	4041 	0.074250
33.83 	0.068148 	4050 	0.066823
33.87 	0.068353 	4111 	0.067213
33.91 	0.074476 	4149 	0.073205
33.95 	0.069601 	4181 	0.068340
33.99 	0.080952 	4200 	0.079558
34.03 	0.072809 	4244 	0.070831
34.07 	0.074742 	4268 	0.073370
34.11 	0.079963 	4302 	0.078329
34.15 	0.074579 	4331 	0.072685
34.19 	0.070839 	4362 	0.069630
34.23 	0.076941 	4393 	0.075340
34.27 	0.069199 	4422 	0.067742
34.31 	0.066846 	4458 	0.065532
34.35 	0.067574 	4484 	0.065745
34.39 	0.071524 	4502 	0.070223
34.43 	0.068738 	4539 	0.067534
34.47 	0.064024 	4592 	0.062749
34.51 	0.066001 	4606 	0.064983
34.55 	0.072367 	4643 	0.071232
34.59 	0.070374 	4675 	0.068871
34.63 	0.074947 	4710 	0.073579
34.67 	0.070871 	4741 	0.069265
34.71 	0.073856 	4766 	0.072873
34.75 	0.066764 	4808 	0.065180
34.79 	0.067164 	4824 	0.066193
34.83 	0.075895 	4862 	0.073846
34.87 	0.067173 	4868 	0.065489
34.91 	0.072306 	4882 	0.071087
34.95 	0.067894 	4890 	0.066456
34.99 	0.070656 	4897 	0.069459
35.03 	0.068986 	4943 	0.067683
35.07 	0.067004 	4940 	0.066293
35.11 	0.066101 	4947 	0.064542
35.15 	0.070286 	4937 	0.068506
35.19 	0.067179 	4942 	0.065401
35.23 	0.069767 	4945 	0.067853
35.27 	0.066087 	4948 	0.065495
35.31 	0.067302 	4933 	0.066589
35.35 	0.072643 	4942 	0.071576
35.39 	0.069161 	4945 	0.067957
35.43 	0.076424 	4933 	0.075118
35.47 	0.072196 	4931 	0.071226
35.51 	0.074706 	4926 	0.073140
35.55 	0.076441 	4945 	0.075375
35.59 	0.080688 	4945 	0.079010
35.63 	0.068177 	4943 	0.066755
35.67 	0.069810 	4942 	0.068585
35.71 	0.064614 	4937 	0.063309
35.75 	0.072399 	4931 	0.070974
35.79 	0.071573 	4932 	0.069673
35.83 	0.074808 	4946 	0.073150
35.87 	0.072111 	4923 	0.069592
35.91 	0.066572 	4927 	0.065859
35.95 	0.073826 	4917 	0.072257
35.99 	0.071067 	4939 	0.069762
36.03 	0.072021 	4943 	0.070362
36.07 	0.064386 	4939 	0.063199
36.11 	0.075269 	4929 	0.073367
36.15 	0.072687 	4939 	0.071600
36.19 	0.072874 	4940 	0.070740
36.23 	0.076393 	4935 	0.074474
36.27 	0.072487 	4925 	0.070565
36.31 	0.072646 	4928 	0.070982
36.35 	0.071617 	4929 	0.069815
36.39 	0.065840 	4921 	0.063936
36.43 	0.068791 	4928 	0.068315
36.47 	0.070908 	4936 	0.069326
36.51 	0.073181 	4933 	0.071993
36.55 	0.078953 	4927 	0.077526
36.59 	0.071674 	4939 	0.069994
36.63 	0.068140 	4931 	0.067071
36.67 	0.077485 	4930 	0.075584
36.71 	0.069295 	4921 	0.067133
36.75 	0.073827 	4944 	0.071931
36.79 	0.073969 	4921 	0.072878
36.83 	0.071821 	4915 	0.070610
36.87 	0.070995 	4944 	0.069573
36.91 	0.072253 	4941 	0.071186
36.95 	0.069532 	4933 	0.067968
36.99 	0.065856 	4935 	0.063581
37.03 	0.066003 	4924 	0.065408
37.07 	0.069098 	4935 	0.067417
37.11 	0.063019 	4935 	0.062288
37.15 	0.066205 	4909 	0.064892
37.19 	0.069645 	4925 	0.069169
37.23 	0.066084 	4918 	0.065131
37.27 	0.071107 	4894 	0.069791
37.31 	0.060993 	4935 	0.059569
37.35 	0.068044 	4938 	0.066857
37.39 	0.070168 	4931 	0.068624
37.43 	0.065693 	4932 	0.064724
37.47 	0.066545 	4929 	0.065238
37.51 	0.069937 	4933 	0.068631
37.55 	0.072617 	4930 	0.071171
37.59 	0.067548 	4915 	0.066118
37.63 	0.068307 	4919 	0.066758
37.67 	0.068923 	4904 	0.067968
37.71 	0.070400 	4929 	0.068786
37.75 	0.066599 	4940 	0.064801
37.79 	0.064097 	4930 	0.063246
37.83 	0.063618 	4920 	0.062546
37.87 	0.064386 	4939 	0.062606
37.91 	0.069168 	4930 	0.068337
37.95 	0.069295 	4921 	0.068104
37.99 	0.057614 	4912 	0.056779
38.03 	0.060705 	4909 	0.059611
38.07 	0.068446 	4909 	0.066875
38.11 	0.063425 	4935 	0.062831
38.15 	0.065270 	4918 	0.063841
38.19 	0.064909 	4930 	0.062988
38.23 	0.065816 	4938 	0.064966
38.27 	0.065314 	4930 	0.063869
38.31 	0.067181 	4927 	0.066111
38.35 	0.066964 	4928 	0.066013
38.39 	0.076390 	4909 	0.074839
38.43 	0.078316 	4916 	0.077005
38.47 	0.074995 	4907 	0.073682
38.51 	0.072182 	4932 	0.071231
38.55 	0.081645 	4936 	0.079984
38.59 	0.071284 	4924 	0.069975
38.63 	0.073314 	4924 	0.071629
38.67 	0.072514 	4937 	0.071090
38.71 	0.069050 	4924 	0.067384
38.75 	0.060483 	4927 	0.059770
38.79 	0.065059 	4934 	0.064228
38.83 	0.057939 	4919 	0.057066
38.87 	0.055386 	4911 	0.054312
38.91 	0.057312 	4903 	0.056953
38.95 	0.054697 	4918 	0.053844
38.99 	0.058740 	4937 	0.057554
39.03 	0.061816 	4934 	0.060747
39.07 	0.061535 	4924 	0.060465
39.11 	0.062462 	4931 	0.061512
39.15 	0.059613 	4915 	0.058541
39.19 	0.057149 	4917 	0.056672
39.23 	0.061117 	4925 	0.060165
39.27 	0.057841 	4910 	0.056409
39.31 	0.055078 	4884 	0.053998
39.35 	0.054306 	4935 	0.053238
39.39 	0.058227 	4929 	0.056801
39.43 	0.058180 	4933 	0.057329
39.47 	0.050376 	4923 	0.049404
39.51 	0.052803 	4924 	0.052307
39.55 	0.060378 	4919 	0.059902
39.59 	0.054764 	4912 	0.054168
39.63 	0.053230 	4922 	0.052516
39.67 	0.065540 	4913 	0.064090
39.71 	0.058427 	4895 	0.057829
39.75 	0.060877 	4928 	0.059569
39.79 	0.058871 	4926 	0.057801
39.83 	0.053506 	4934 	0.052675
39.87 	0.055431 	4925 	0.055075
39.91 	0.058106 	4922 	0.056540
39.95 	0.057986 	4915 	0.057032
39.99 	0.053528 	4932 	0.052578
40.03 	0.054383 	4928 	0.053076
40.07 	0.058704 	4923 	0.057990
40.11 	0.055126 	4916 	0.054769
40.15 	0.057399 	4913 	0.056683
40.19 	0.058430 	4929 	0.057954
40.23 	0.056772 	4932 	0.055822
40.27 	0.055297 	4937 	0.053992
40.31 	0.053655 	4939 	0.052568
40.35 	0.046961 	4919 	0.046484
40.39 	0.058000 	4931 	0.056694
40.43 	0.055872 	4922 	0.055277
40.47 	0.060187 	4918 	0.058857
40.51 	0.059935 	4922 	0.058507
40.55 	0.054197 	4908 	0.053223
40.59 	0.057322 	4937 	0.055898
40.63 	0.058012 	4930 	0.056804
40.67 	0.054745 	4932 	0.053913
40.71 	0.049878 	4932 	0.049166
40.75 	0.059217 	4931 	0.058386
40.79 	0.051178 	4924 	0.050445
40.83 	0.045860 	4928 	0.045266
40.87 	0.051745 	4928 	0.050794
40.91 	0.056470 	4923 	0.055399
40.95 	0.060045 	4913 	0.058714
40.99 	0.058489 	4924 	0.057894
41.03 	0.050561 	4905 	0.049366
41.07 	0.055984 	4930 	0.055390
41.11 	0.054509 	4935 	0.053796
41.15 	0.055050 	4941 	0.054319
41.19 	0.054564 	4930 	0.053831
41.23 	0.055072 	4939 	0.054242
41.27 	0.055567 	4931 	0.054379
41.31 	0.054733 	4933 	0.054377
41.35 	0.057918 	4938 	0.056732
41.39 	0.056761 	4933 	0.055098
41.43 	0.056198 	4929 	0.055485
41.47 	0.056638 	4926 	0.055568
41.51 	0.052429 	4940 	0.051599
41.55 	0.056332 	4935 	0.055620
41.59 	0.057166 	4933 	0.056335
41.63 	0.056298 	4938 	0.055468
41.67 	0.050607 	4940 	0.049777
41.71 	0.049655 	4934 	0.049181
41.75 	0.056604 	4929 	0.055772
41.79 	0.052387 	4944 	0.051320
41.83 	0.055398 	4928 	0.054209
41.87 	0.047416 	4935 	0.046467
41.91 	0.052472 	4936 	0.052116
41.95 	0.053539 	4931 	0.052826
41.99 	0.048318 	4905 	0.047462
42.03 	0.051225 	4939 	0.050276
42.07 	0.051043 	4937 	0.050924
42.11 	0.049343 	4945 	0.048731
42.15 	0.046780 	4938 	0.046068
42.19 	0.048900 	4908 	0.048661
42.23 	0.048855 	4892 	0.048137
42.27 	0.054370 	4874 	0.053509
42.31 	0.047580 	4855 	0.046353
42.35 	0.049194 	4838 	0.048346
42.39 	0.053705 	4804 	0.052852
42.43 	0.046536 	4792 	0.046047
42.47 	0.048059 	4765 	0.047178
42.51 	0.051023 	4743 	0.050158
42.55 	0.045030 	4708 	0.044781
42.59 	0.050328 	4729 	0.049832
42.63 	0.055001 	4709 	0.054503
42.67 	0.044620 	4684 	0.043995
42.71 	0.049968 	4663 	0.049088
42.75 	0.049166 	4617 	0.048659
42.79 	0.046486 	4582 	0.045719
42.83 	0.043871 	4536 	0.043484
42.87 	0.055790 	4499 	0.054749
42.91 	0.048250 	4456 	0.047329
42.95 	0.056159 	4416 	0.054966
42.99 	0.045610 	4385 	0.044809
43.03 	0.055389 	4333 	0.054848
43.07 	0.049581 	4296 	0.049581
43.11 	0.052409 	4255 	0.051308
43.15 	0.052782 	4206 	0.052225
43.19 	0.043395 	4194 	0.042697
43.23 	0.044295 	4154 	0.043731
43.27 	0.048721 	4105 	0.047579
43.31 	0.050748 	4079 	0.050030
43.35 	0.056300 	4032 	0.056154
43.39 	0.047226 	4002 	0.046934
43.43 	0.046970 	3960 	0.046822
43.47 	0.041826 	3921 	0.041228
43.51 	0.048491 	3877 	0.048038
43.55 	0.053644 	2964 	0.052656
43.59 	0.040664 	1746 	0.040664
43.63 	0.048951 	1001 	0.048366
43.67 	0.053785 	502 	0.053785
43.71 	0.058577 	239 	0.058577
43.75 	0.000000 	16 	0.000000