Folder: Bessy-II-KMC-II-insitu-sin2psi/Example_Data (part 93)

File: 25SC_s1_0037.003.dat
#F C:\frames\spec\25SC_s1_0037.003
#C title =s:37 frm:3 25SC_s1
#C wavelength =0.15406

#S 1  fr_average C:\frames\spec\25SC_s1_0037.003 C:\win32app\speccom\mask.axs chi 0 180 0 360 0.02
#C 2 theta =0.000000 to 180 deg
#C   q   =0.000000 to 81.568 nm^-1
#C  chi  =0.000000 to 360 deg
#C collumns:
#C  1 position (2theta or chi in degrees)
#C  2 average intensity (sum of all counts in the region divided with number of pixels)
#C  3 Number of pixels in region)
#C  4 error (sum of sqrt(intensity) for all pixels divided by number)
#N 4
#L TTh  Int  N_pix  Err
32.99 	0.032787 	61 	0.032787
33.03 	0.066139 	1391 	0.064876
33.07 	0.053171 	2050 	0.052313
33.11 	0.060489 	2579 	0.059580
33.15 	0.057686 	2999 	0.057100
33.19 	0.052962 	3342 	0.052436
33.23 	0.061028 	3523 	0.059365
33.27 	0.057576 	3630 	0.056930
33.31 	0.060929 	3660 	0.060609
33.35 	0.063617 	3694 	0.062031
33.39 	0.057924 	3729 	0.057453
33.43 	0.055304 	3761 	0.054370
33.47 	0.058978 	3798 	0.057590
33.51 	0.061075 	3815 	0.059539
33.55 	0.061150 	3843 	0.059931
33.59 	0.062113 	3880 	0.060881
33.63 	0.059199 	3919 	0.058152
33.67 	0.069803 	3954 	0.068593
33.71 	0.064403 	3975 	0.062487
33.75 	0.058765 	3999 	0.057739
33.79 	0.062608 	4041 	0.060869
33.83 	0.060000 	4050 	0.058988
33.87 	0.058866 	4111 	0.058012
33.91 	0.067245 	4149 	0.065833
33.95 	0.055967 	4181 	0.055127
33.99 	0.062143 	4200 	0.061445
34.03 	0.057022 	4244 	0.055779
34.07 	0.066542 	4268 	0.064483
34.11 	0.061134 	4302 	0.060862
34.15 	0.061649 	4331 	0.060837
34.19 	0.061669 	4362 	0.060997
34.23 	0.062144 	4393 	0.060944
34.27 	0.064450 	4422 	0.063391
34.31 	0.052939 	4458 	0.052282
34.35 	0.054193 	4484 	0.053409
34.39 	0.057530 	4502 	0.055838
34.43 	0.062789 	4539 	0.061628
34.47 	0.055314 	4592 	0.054293
34.51 	0.055580 	4606 	0.055325
34.55 	0.052121 	4643 	0.051238
34.59 	0.060535 	4675 	0.059386
34.63 	0.062208 	4710 	0.061213
34.67 	0.055263 	4741 	0.054274
34.71 	0.054133 	4766 	0.053027
34.75 	0.056780 	4808 	0.055928
34.79 	0.059701 	4824 	0.058467
34.83 	0.055944 	4862 	0.055462
34.87 	0.060805 	4868 	0.059361
34.91 	0.057763 	4882 	0.057163
34.95 	0.057669 	4890 	0.057309
34.99 	0.053502 	4897 	0.053024
35.03 	0.057860 	4943 	0.056892
35.07 	0.055668 	4940 	0.054957
35.11 	0.052557 	4947 	0.051491
35.15 	0.054081 	4937 	0.052895
35.19 	0.059085 	4942 	0.057663
35.23 	0.048938 	4945 	0.048464
35.27 	0.052344 	4948 	0.051634
35.31 	0.052301 	4933 	0.051588
35.35 	0.058074 	4942 	0.056888
35.39 	0.056623 	4945 	0.055201
35.43 	0.060207 	4933 	0.058782
35.47 	0.057392 	4931 	0.056917
35.51 	0.053390 	4926 	0.052915
35.55 	0.058645 	4945 	0.057579
35.59 	0.055814 	4945 	0.054511
35.63 	0.055027 	4943 	0.054198
35.67 	0.057264 	4942 	0.056672
35.71 	0.055499 	4937 	0.054075
35.75 	0.058812 	4931 	0.057624
35.79 	0.058800 	4932 	0.057949
35.83 	0.054994 	4946 	0.054402
35.87 	0.048548 	4923 	0.047953
35.91 	0.058250 	4927 	0.057180
35.95 	0.055725 	4917 	0.055248
35.99 	0.056489 	4939 	0.055877
36.03 	0.052600 	4943 	0.051652
36.07 	0.055679 	4939 	0.054612
36.11 	0.050720 	4929 	0.049769
36.15 	0.055274 	4939 	0.054563
36.19 	0.054656 	4940 	0.054300
36.23 	0.057548 	4935 	0.055867
36.27 	0.054822 	4925 	0.053871
36.31 	0.048295 	4928 	0.047463
36.35 	0.055386 	4929 	0.053822
36.39 	0.054867 	4921 	0.053677
36.43 	0.053977 	4928 	0.052670
36.47 	0.049028 	4936 	0.048553
36.51 	0.046017 	4933 	0.045304
36.55 	0.047087 	4927 	0.046731
36.59 	0.059324 	4939 	0.058494
36.63 	0.059623 	4931 	0.058435
36.67 	0.051927 	4930 	0.050858
36.71 	0.055680 	4921 	0.055085
36.75 	0.054612 	4944 	0.053901
36.79 	0.059541 	4921 	0.058469
36.83 	0.050661 	4915 	0.049708
36.87 	0.058050 	4944 	0.056865
36.91 	0.055657 	4941 	0.054945
36.95 	0.053923 	4933 	0.052973
36.99 	0.050253 	4935 	0.049541
37.03 	0.052193 	4924 	0.051123
37.07 	0.055319 	4935 	0.054132
37.11 	0.057751 	4935 	0.057039
37.15 	0.052964 	4909 	0.052129
37.19 	0.049949 	4925 	0.049355
37.23 	0.053070 	4918 	0.052237
37.27 	0.052513 	4894 	0.052035
37.31 	0.045795 	4935 	0.045439
37.35 	0.048805 	4938 	0.048331
37.39 	0.056175 	4931 	0.054968
37.43 	0.054136 	4932 	0.053661
37.47 	0.050112 	4929 	0.049280
37.51 	0.048449 	4933 	0.047618
37.55 	0.047059 	4930 	0.046346
37.59 	0.047202 	4915 	0.046607
37.63 	0.051230 	4919 	0.050634
37.67 	0.052610 	4904 	0.051655
37.71 	0.047880 	4929 	0.047642
37.75 	0.053441 	4940 	0.052730
37.79 	0.057606 	4930 	0.056775
37.83 	0.051016 	4920 	0.050421
37.87 	0.052845 	4939 	0.052133
37.91 	0.049899 	4930 	0.049304
37.95 	0.056899 	4921 	0.055828
37.99 	0.048046 	4912 	0.046972
38.03 	0.046445 	4909 	0.045710
38.07 	0.055408 	4909 	0.054076
38.11 	0.055117 	4935 	0.054167
38.15 	0.055307 	4918 	0.054354
38.19 	0.054158 	4930 	0.053208
38.23 	0.057311 	4938 	0.056480
38.27 	0.052333 	4930 	0.051976
38.31 	0.055612 	4927 	0.054423
38.35 	0.055804 	4928 	0.055090
38.39 	0.054390 	4909 	0.053435
38.43 	0.056753 	4916 	0.056396
38.47 	0.059711 	4907 	0.058756
38.51 	0.062652 	4932 	0.061346
38.55 	0.060981 	4936 	0.059556
38.59 	0.056458 	4924 	0.056101
38.63 	0.058489 	4924 	0.057180
38.67 	0.052664 	4937 	0.051952
38.71 	0.053209 	4924 	0.052594
38.75 	0.049117 	4927 	0.048760
38.79 	0.051682 	4934 	0.051207
38.83 	0.048587 	4919 	0.047992
38.87 	0.051313 	4911 	0.050459
38.91 	0.050173 	4903 	0.049457
38.95 	0.055714 	4918 	0.054880
38.99 	0.046587 	4937 	0.046231
39.03 	0.052493 	4934 	0.051662
39.07 	0.049350 	4924 	0.048874
39.11 	0.049686 	4931 	0.049567
39.15 	0.048627 	4915 	0.048150
39.19 	0.046166 	4917 	0.045571
39.23 	0.047919 	4925 	0.047205
39.27 	0.046029 	4910 	0.045551
39.31 	0.045659 	4884 	0.045060
39.35 	0.048632 	4935 	0.047920
39.39 	0.048691 	4929 	0.047622
39.43 	0.047030 	4933 	0.046199
39.47 	0.049360 	4923 	0.048408
39.51 	0.047929 	4924 	0.047691
39.55 	0.044521 	4919 	0.043569
39.59 	0.050489 	4912 	0.050012
39.63 	0.047338 	4922 	0.046862
39.67 	0.051903 	4913 	0.050949
39.71 	0.048825 	4895 	0.048586
39.75 	0.045860 	4928 	0.045147
39.79 	0.048518 	4926 	0.047923
39.83 	0.049655 	4934 	0.049062
39.87 	0.044873 	4925 	0.044397
39.91 	0.043681 	4922 	0.043205
39.95 	0.049644 	4915 	0.048571
39.99 	0.046229 	4932 	0.045754
40.03 	0.040179 	4928 	0.039703
40.07 	0.039610 	4923 	0.039372
40.11 	0.049837 	4916 	0.048765
40.15 	0.052107 	4913 	0.051749
40.19 	0.049706 	4929 	0.048973
40.23 	0.047040 	4932 	0.046090
40.27 	0.046790 	4937 	0.046552
40.31 	0.044948 	4939 	0.044237
40.35 	0.041878 	4919 	0.041640
40.39 	0.049077 	4931 	0.048721
40.43 	0.042056 	4922 	0.041342
40.47 	0.044937 	4918 	0.044699
40.51 	0.041040 	4922 	0.040445
40.55 	0.039120 	4908 	0.038642
40.59 	0.043549 	4937 	0.042955
40.63 	0.045030 	4930 	0.044436
40.67 	0.043796 	4932 	0.043202
40.71 	0.043390 	4932 	0.042796
40.75 	0.049077 	4931 	0.048602
40.79 	0.042039 	4924 	0.041682
40.83 	0.040584 	4928 	0.040466
40.87 	0.038758 	4928 	0.038283
40.91 	0.050173 	4923 	0.049340
40.95 	0.044576 	4913 	0.043741
40.99 	0.040211 	4924 	0.039973
41.03 	0.041182 	4905 	0.041063
41.07 	0.040974 	4930 	0.039904
41.11 	0.046606 	4935 	0.045775
41.15 	0.046145 	4941 	0.044939
41.19 	0.040162 	4930 	0.039925
41.23 	0.051630 	4939 	0.050325
41.27 	0.041777 	4931 	0.041301
41.31 	0.044395 	4933 	0.043801
41.35 	0.043540 	4938 	0.042709
41.39 	0.043584 	4933 	0.042397
41.43 	0.042605 	4929 	0.042367
41.47 	0.046082 	4926 	0.045844
41.51 	0.044332 	4940 	0.044095
41.55 	0.045998 	4935 	0.045286
41.59 	0.037503 	4933 	0.037146
41.63 	0.040300 	4938 	0.039944
41.67 	0.044130 	4940 	0.043537
41.71 	0.041346 	4934 	0.040396
41.75 	0.040373 	4929 	0.039898
41.79 	0.043285 	4944 	0.042929
41.83 	0.038149 	4928 	0.037555
41.87 	0.036677 	4935 	0.036439
41.91 	0.043963 	4936 	0.043369
41.95 	0.044413 	4931 	0.043225
41.99 	0.043221 	4905 	0.042027
42.03 	0.042721 	4939 	0.042247
42.07 	0.040916 	4937 	0.040085
42.11 	0.041860 	4945 	0.041268
42.15 	0.043540 	4938 	0.043184
42.19 	0.040342 	4908 	0.039965
42.23 	0.041087 	4892 	0.040489
42.27 	0.039803 	4874 	0.038842
42.31 	0.040165 	4855 	0.039441
42.35 	0.043406 	4838 	0.042922
42.39 	0.040175 	4804 	0.039179
42.43 	0.041319 	4792 	0.040585
42.47 	0.044491 	4765 	0.044122
42.51 	0.035631 	4743 	0.035508
42.55 	0.043118 	4708 	0.042496
42.59 	0.039332 	4729 	0.038836
42.63 	0.042897 	4709 	0.042399
42.67 	0.040350 	4684 	0.040100
42.71 	0.037958 	4663 	0.037456
42.75 	0.038986 	4617 	0.038585
42.79 	0.043867 	4582 	0.042824
42.83 	0.041005 	4536 	0.040747
42.87 	0.044232 	4499 	0.043841
42.91 	0.042415 	4456 	0.041232
42.95 	0.040534 	4416 	0.040136
42.99 	0.047434 	4385 	0.047034
43.03 	0.037387 	4333 	0.036419
43.07 	0.040968 	4296 	0.040150
43.11 	0.045593 	4255 	0.045043
43.15 	0.038754 	4206 	0.037919
43.19 	0.036242 	4194 	0.035823
43.23 	0.035869 	4154 	0.035587
43.27 	0.041900 	4105 	0.041757
43.31 	0.034812 	4079 	0.034238
43.35 	0.047123 	4032 	0.045937
43.39 	0.038981 	4002 	0.038249
43.43 	0.037626 	3960 	0.037182
43.47 	0.043356 	3921 	0.042460
43.51 	0.039979 	3877 	0.039526
43.55 	0.039811 	2964 	0.039613
43.59 	0.038946 	1746 	0.038611
43.63 	0.045954 	1001 	0.045369
43.67 	0.033865 	502 	0.033865
43.71 	0.054393 	239 	0.054393
43.75 	0.062500 	16 	0.062500

File: 25SC_s1_0037.004.dat
#F C:\frames\spec\25SC_s1_0037.004
#C title =s:37 frm:4 25SC_s1
#C wavelength =0.15406

#S 1  fr_average C:\frames\spec\25SC_s1_0037.004 C:\win32app\speccom\mask.axs chi 0 180 0 360 0.02
#C 2 theta =0.000000 to 180 deg
#C   q   =0.000000 to 81.568 nm^-1
#C  chi  =0.000000 to 360 deg
#C collumns:
#C  1 position (2theta or chi in degrees)
#C  2 average intensity (sum of all counts in the region divided with number of pixels)
#C  3 Number of pixels in region)
#C  4 error (sum of sqrt(intensity) for all pixels divided by number)
#N 4
#L TTh  Int  N_pix  Err
32.99 	0.016393 	61 	0.016393
33.03 	0.063264 	1391 	0.062000
33.07 	0.062439 	2050 	0.061868
33.11 	0.051183 	2579 	0.050501
33.15 	0.055352 	2999 	0.054766
33.19 	0.055057 	3342 	0.054005
33.23 	0.059892 	3523 	0.059061
33.27 	0.052617 	3630 	0.051649
33.31 	0.063115 	3660 	0.061354
33.35 	0.064429 	3694 	0.063002
33.39 	0.056584 	3729 	0.055327
33.43 	0.060888 	3761 	0.059954
33.47 	0.062401 	3798 	0.061450
33.51 	0.060550 	3815 	0.058554
33.55 	0.053864 	3843 	0.052492
33.59 	0.062113 	3880 	0.061660
33.63 	0.059454 	3919 	0.058557
33.67 	0.058169 	3954 	0.056984
33.71 	0.057862 	3975 	0.056977
33.75 	0.060765 	3999 	0.059593
33.79 	0.064093 	4041 	0.062910
33.83 	0.058272 	4050 	0.057115
33.87 	0.053028 	4111 	0.052458
33.91 	0.058809 	4149 	0.057539
33.95 	0.059077 	4181 	0.058656
33.99 	0.056905 	4200 	0.056068
34.03 	0.055137 	4244 	0.054447
34.07 	0.054592 	4268 	0.053357
34.11 	0.051604 	4302 	0.050787
34.15 	0.061187 	4331 	0.060646
34.19 	0.054104 	4362 	0.053276
34.23 	0.055998 	4393 	0.055198
34.27 	0.058797 	4422 	0.058400
34.31 	0.055855 	4458 	0.054803
34.35 	0.064005 	4484 	0.063744
34.39 	0.054420 	4502 	0.053379
34.43 	0.057061 	4539 	0.056287
34.47 	0.058798 	4592 	0.057395
34.51 	0.055145 	4606 	0.053746
34.55 	0.054706 	4643 	0.053444
34.59 	0.058610 	4675 	0.057733
34.63 	0.055414 	4710 	0.054668
34.67 	0.054419 	4741 	0.052936
34.71 	0.052665 	4766 	0.052173
34.75 	0.060316 	4808 	0.058834
34.79 	0.058250 	4824 	0.057400
34.83 	0.056972 	4862 	0.055868
34.87 	0.058546 	4868 	0.057463
34.91 	0.059812 	4882 	0.059332
34.95 	0.053988 	4890 	0.053509
34.99 	0.059628 	4897 	0.058432
35.03 	0.057657 	4943 	0.056946
35.07 	0.058300 	4940 	0.057232
35.11 	0.057004 	4947 	0.055939
35.15 	0.060968 	4937 	0.059900
35.19 	0.054431 	4942 	0.053957
35.23 	0.056218 	4945 	0.055508
35.27 	0.052749 	4948 	0.051565
35.31 	0.055950 	4933 	0.054881
35.35 	0.053824 	4942 	0.053113
35.39 	0.063903 	4945 	0.062817
35.43 	0.054936 	4933 	0.054461
35.47 	0.061651 	4931 	0.060700
35.51 	0.060089 	4926 	0.059495
35.55 	0.059454 	4945 	0.059099
35.59 	0.060263 	4945 	0.059533
35.63 	0.055230 	4943 	0.054045
35.67 	0.059490 	4942 	0.058305
35.71 	0.059348 	4937 	0.058161
35.75 	0.053539 	4931 	0.052232
35.79 	0.057178 	4932 	0.055990
35.83 	0.052568 	4946 	0.051502
35.87 	0.060532 	4923 	0.059461
35.91 	0.059468 	4927 	0.058636
35.95 	0.058776 	4917 	0.057227
35.99 	0.051427 	4939 	0.050953
36.03 	0.060085 	4943 	0.059374
36.07 	0.057299 	4939 	0.056350
36.11 	0.056198 	4929 	0.055247
36.15 	0.058311 	4939 	0.057600
36.19 	0.052834 	4940 	0.052241
36.23 	0.051469 	4935 	0.050757
36.27 	0.055228 	4925 	0.054515
36.31 	0.054586 	4928 	0.054229
36.35 	0.058430 	4929 	0.057341
36.39 	0.060557 	4921 	0.059604
36.43 	0.059050 	4928 	0.057862
36.47 	0.046799 	4936 	0.046087
36.51 	0.055747 	4933 	0.055272
36.55 	0.057642 	4927 	0.056690
36.59 	0.055072 	4939 	0.053411
36.63 	0.055567 	4931 	0.054022
36.67 	0.050304 	4930 	0.049948
36.71 	0.055273 	4921 	0.054202
36.75 	0.050162 	4944 	0.049806
36.79 	0.059338 	4921 	0.057770
36.83 	0.056765 	4915 	0.055692
36.87 	0.059668 	4944 	0.059194
36.91 	0.052621 	4941 	0.051772
36.95 	0.054936 	4933 	0.054224
36.99 	0.060993 	4935 	0.060043
37.03 	0.051178 	4924 	0.050940
37.07 	0.052280 	4935 	0.051686
37.11 	0.053901 	4935 	0.053050
37.15 	0.055408 	4909 	0.054692
37.19 	0.058883 	4925 	0.058051
37.23 	0.048394 	4918 	0.047917
37.27 	0.054148 	4894 	0.053430
37.31 	0.057953 	4935 	0.056648
37.35 	0.053665 	4938 	0.052242
37.39 	0.053539 	4931 	0.051876
37.43 	0.054542 	4932 	0.054067
37.47 	0.054169 	4929 	0.053813
37.51 	0.056558 	4933 	0.055588
37.55 	0.060243 	4930 	0.059055
37.59 	0.054527 	4915 	0.053693
37.63 	0.058142 	4919 	0.057070
37.67 	0.050979 	4904 	0.050023
37.71 	0.052140 	4929 	0.051665
37.75 	0.053846 	4940 	0.052641
37.79 	0.059229 	4930 	0.058140
37.83 	0.055488 	4920 	0.054892
37.87 	0.053452 	4939 	0.052503
37.91 	0.057809 	4930 	0.056265
37.95 	0.060760 	4921 	0.059808
37.99 	0.051710 	4912 	0.051233
38.03 	0.053779 	4909 	0.053182
38.07 	0.052353 	4909 	0.051279
38.11 	0.053698 	4935 	0.052748
38.15 	0.057747 	4918 	0.056913
38.19 	0.054970 	4930 	0.054257
38.23 	0.059133 	4938 	0.058540
38.27 	0.059838 	4930 	0.059125
38.31 	0.058047 	4927 	0.056859
38.35 	0.066558 	4928 	0.064894
38.39 	0.064779 	4909 	0.063705
38.43 	0.062653 	4916 	0.061699
38.47 	0.068270 	4907 	0.066788
38.51 	0.066302 	4932 	0.064758
38.55 	0.058549 	4936 	0.057125
38.59 	0.065597 	4924 	0.064645
38.63 	0.057880 	4924 	0.056195
38.67 	0.059550 	4937 	0.058601
38.71 	0.052193 	4924 	0.051717
38.75 	0.051756 	4927 	0.051280
38.79 	0.059992 	4934 	0.058567
38.83 	0.054279 	4919 	0.053803
38.87 	0.054164 	4911 	0.053210
38.91 	0.057516 	4903 	0.056679
38.95 	0.055307 	4918 	0.053977
38.99 	0.054284 	4937 	0.053453
39.03 	0.053304 	4934 	0.052591
39.07 	0.050772 	4924 	0.049939
39.11 	0.056175 	4931 	0.055581
39.15 	0.054527 	4915 	0.053573
39.19 	0.054708 	4917 	0.053378
39.23 	0.047919 	4925 	0.046848
39.27 	0.054582 	4910 	0.053986
39.31 	0.056306 	4884 	0.056186
39.35 	0.053698 	4935 	0.052986
39.39 	0.048489 	4929 	0.047894
39.43 	0.049666 	4933 	0.049072
39.47 	0.053016 	4923 	0.052659
39.51 	0.056052 	4924 	0.055219
39.55 	0.052856 	4919 	0.051904
39.59 	0.058021 	4912 	0.056809
39.63 	0.057497 	4922 	0.056069
39.67 	0.049868 	4913 	0.048675
39.71 	0.056180 	4895 	0.055222
39.75 	0.054383 	4928 	0.053670
39.79 	0.050548 	4926 	0.049835
39.83 	0.059587 	4934 	0.058617
39.87 	0.056853 	4925 	0.055901
39.91 	0.054856 	4922 	0.053904
39.95 	0.051679 	4915 	0.050487
39.99 	0.053325 	4932 	0.052613
40.03 	0.052557 	4928 	0.051725
40.07 	0.058298 	4923 	0.057227
40.11 	0.054109 	4916 	0.053275
40.15 	0.046407 	4913 	0.045692
40.19 	0.047880 	4929 	0.047167
40.23 	0.051095 	4932 	0.050382
40.27 	0.057930 	4937 	0.056625
40.31 	0.053857 	4939 	0.053027
40.35 	0.057329 	4919 	0.056733
40.39 	0.058812 	4931 	0.058099
40.43 	0.050589 	4922 	0.049161
40.47 	0.048800 	4918 	0.048681
40.51 	0.055668 	4922 	0.054716
40.55 	0.051548 	4908 	0.050236
40.59 	0.050841 	4937 	0.050129
40.63 	0.049899 	4930 	0.049067
40.67 	0.047242 	4932 	0.046411
40.71 	0.053122 	4932 	0.052054
40.75 	0.056784 	4931 	0.056190
40.79 	0.050569 	4924 	0.049855
40.83 	0.050122 	4928 	0.049765
40.87 	0.051745 	4928 	0.051151
40.91 	0.051188 	4923 	0.049998
40.95 	0.049461 	4913 	0.048745
40.99 	0.051178 	4924 	0.050226
41.03 	0.048114 	4905 	0.047636
41.07 	0.049290 	4930 	0.048458
41.11 	0.052280 	4935 	0.051449
41.15 	0.058490 	4941 	0.057897
41.19 	0.046450 	4930 	0.045737
41.23 	0.048593 	4939 	0.047862
41.27 	0.054147 	4931 	0.053316
41.31 	0.051287 	4933 	0.050812
41.35 	0.049413 	4938 	0.048938
41.39 	0.046625 	4933 	0.046150
41.43 	0.044228 	4929 	0.043634
41.47 	0.045879 	4926 	0.045641
41.51 	0.047773 	4940 	0.046825
41.55 	0.053293 	4935 	0.052462
41.59 	0.050679 	4933 	0.049610
41.63 	0.047590 	4938 	0.046622
41.67 	0.046559 	4940 	0.046084
41.71 	0.047021 	4934 	0.046071
41.75 	0.045040 	4929 	0.044445
41.79 	0.049150 	4944 	0.048084
41.83 	0.043425 	4928 	0.042950
41.87 	0.051874 	4935 	0.051400
41.91 	0.043760 	4936 	0.043048
41.95 	0.046644 	4931 	0.045654
41.99 	0.045872 	4905 	0.045394
42.03 	0.045353 	4939 	0.044642
42.07 	0.048815 	4937 	0.047985
42.11 	0.044692 	4945 	0.043744
42.15 	0.049413 	4938 	0.048701
42.19 	0.048085 	4908 	0.047846
42.23 	0.050491 	4892 	0.049413
42.27 	0.048215 	4874 	0.047494
42.31 	0.045932 	4855 	0.045449
42.35 	0.044026 	4838 	0.043784
42.39 	0.053497 	4804 	0.052522
42.43 	0.050710 	4792 	0.049202
42.47 	0.038825 	4765 	0.038702
42.51 	0.045541 	4743 	0.045047
42.55 	0.048003 	4708 	0.047381
42.59 	0.047367 	4729 	0.046996
42.63 	0.046719 	4709 	0.046221
42.67 	0.046114 	4684 	0.045489
42.71 	0.045464 	4663 	0.044836
42.75 	0.040286 	4617 	0.039398
42.79 	0.051069 	4582 	0.050430
42.83 	0.050485 	4536 	0.049323
42.87 	0.043343 	4499 	0.042562
42.91 	0.048923 	4456 	0.048660
42.95 	0.045290 	4416 	0.044759
42.99 	0.041049 	4385 	0.040648
43.03 	0.044311 	4333 	0.043635
43.07 	0.051909 	4296 	0.050682
43.11 	0.043008 	4255 	0.042733
43.15 	0.045411 	4206 	0.044158
43.19 	0.050548 	4194 	0.049990
43.23 	0.053442 	4154 	0.052737
43.27 	0.043362 	4105 	0.043219
43.31 	0.053199 	4079 	0.052768
43.35 	0.045387 	4032 	0.044806
43.39 	0.040230 	4002 	0.040084
43.43 	0.052273 	3960 	0.051385
43.47 	0.053558 	3921 	0.052512
43.51 	0.045396 	3877 	0.044640
43.55 	0.045547 	2964 	0.044361
43.59 	0.049255 	1746 	0.047858
43.63 	0.037962 	1001 	0.036792
43.67 	0.057769 	502 	0.057769
43.71 	0.029289 	239 	0.029289
43.75 	0.000000 	16 	0.000000