Folder: Bessy-II-KMC-II-insitu-sin2psi/Example_Data (part 69)

File: 25SC_s1_0028.000.dat
#F C:\frames\spec\25SC_s1_0028.000
#C title =s:28 frm:0 25SC_s1
#C wavelength =0.15406

#S 1  fr_average C:\frames\spec\25SC_s1_0028.000 C:\win32app\speccom\mask.axs chi 0 180 0 360 0.02
#C 2 theta =0.000000 to 180 deg
#C   q   =0.000000 to 81.568 nm^-1
#C  chi  =0.000000 to 360 deg
#C collumns:
#C  1 position (2theta or chi in degrees)
#C  2 average intensity (sum of all counts in the region divided with number of pixels)
#C  3 Number of pixels in region)
#C  4 error (sum of sqrt(intensity) for all pixels divided by number)
#N 4
#L TTh  Int  N_pix  Err
32.99 	0.032787 	61 	0.032787
33.03 	0.061107 	1391 	0.060265
33.07 	0.059024 	2050 	0.057310
33.11 	0.066693 	2579 	0.066011
33.15 	0.066355 	2999 	0.065379
33.19 	0.063136 	3342 	0.061383
33.23 	0.057905 	3523 	0.056575
33.27 	0.052893 	3630 	0.051763
33.31 	0.058743 	3660 	0.057463
33.35 	0.059556 	3694 	0.058446
33.39 	0.061679 	3729 	0.061207
33.43 	0.062217 	3761 	0.060790
33.47 	0.059505 	3798 	0.058580
33.51 	0.054260 	3815 	0.053799
33.55 	0.064012 	3843 	0.062183
33.59 	0.058763 	3880 	0.058310
33.63 	0.059454 	3919 	0.058557
33.67 	0.060698 	3954 	0.059513
33.71 	0.059623 	3975 	0.057412
33.75 	0.059015 	3999 	0.056671
33.79 	0.059144 	4041 	0.057984
33.83 	0.053333 	4050 	0.052899
33.87 	0.059110 	4111 	0.058112
33.91 	0.061461 	4149 	0.060190
33.95 	0.057642 	4181 	0.056101
33.99 	0.052619 	4200 	0.052201
34.03 	0.056315 	4244 	0.055073
34.07 	0.049438 	4268 	0.048889
34.11 	0.059507 	4302 	0.058690
34.15 	0.060725 	4331 	0.059237
34.19 	0.059376 	4362 	0.058839
34.23 	0.056226 	4393 	0.055426
34.27 	0.059249 	4422 	0.058719
34.31 	0.059668 	4458 	0.058354
34.35 	0.059322 	4484 	0.058408
34.39 	0.057752 	4502 	0.057492
34.43 	0.056180 	4539 	0.055126
34.47 	0.059233 	4592 	0.058085
34.51 	0.056665 	4606 	0.055881
34.55 	0.055137 	4643 	0.053497
34.59 	0.059251 	4675 	0.058249
34.63 	0.057537 	4710 	0.056667
34.67 	0.055263 	4741 	0.054398
34.71 	0.058959 	4766 	0.057976
34.75 	0.058236 	4808 	0.057627
34.79 	0.051617 	4824 	0.050403
34.83 	0.052448 	4862 	0.051845
34.87 	0.053821 	4868 	0.053340
34.91 	0.061860 	4882 	0.061020
34.95 	0.052556 	4890 	0.051598
34.99 	0.056565 	4897 	0.055469
35.03 	0.051588 	4943 	0.050996
35.07 	0.062955 	4940 	0.061750
35.11 	0.052961 	4947 	0.052488
35.15 	0.052056 	4937 	0.051443
35.19 	0.048563 	4942 	0.048089
35.23 	0.058443 	4945 	0.057377
35.27 	0.058003 	4948 	0.057175
35.31 	0.063045 	4933 	0.062095
35.35 	0.058074 	4942 	0.057244
35.39 	0.059656 	4945 	0.058590
35.43 	0.055950 	4933 	0.055237
35.47 	0.053742 	4931 	0.053029
35.51 	0.062525 	4926 	0.060603
35.55 	0.052781 	4945 	0.052188
35.59 	0.058241 	4945 	0.057411
35.63 	0.061906 	4943 	0.060602
35.67 	0.056860 	4942 	0.056247
35.71 	0.057727 	4937 	0.057134
35.75 	0.053742 	4931 	0.052672
35.79 	0.056772 	4932 	0.055327
35.83 	0.054185 	4946 	0.053119
35.87 	0.058704 	4923 	0.057514
35.91 	0.055409 	4927 	0.054101
35.95 	0.053895 	4917 	0.053656
35.99 	0.057906 	4939 	0.056839
36.03 	0.061501 	4943 	0.061027
36.07 	0.058919 	4939 	0.058089
36.11 	0.061676 	4929 	0.060606
36.15 	0.060741 	4939 	0.059555
36.19 	0.062348 	4940 	0.061380
36.23 	0.066261 	4935 	0.064580
36.27 	0.057665 	4925 	0.056713
36.31 	0.061485 	4928 	0.060634
36.35 	0.059241 	4929 	0.058172
36.39 	0.058728 	4921 	0.058133
36.43 	0.055804 	4928 	0.055447
36.47 	0.057131 	4936 	0.056419
36.51 	0.058788 	4933 	0.057838
36.55 	0.055409 	4927 	0.054458
36.59 	0.059324 	4939 	0.058494
36.63 	0.063070 	4931 	0.062001
36.67 	0.054767 	4930 	0.054173
36.71 	0.057305 	4921 	0.056353
36.75 	0.059668 	4944 	0.058483
36.79 	0.055273 	4921 	0.054083
36.83 	0.058800 	4915 	0.058323
36.87 	0.053600 	4944 	0.052140
36.91 	0.062943 	4941 	0.061738
36.95 	0.056558 	4933 	0.055470
36.99 	0.061196 	4935 	0.060226
37.03 	0.056255 	4924 	0.055422
37.07 	0.059372 	4935 	0.058185
37.11 	0.052685 	4935 	0.051498
37.15 	0.059686 	4909 	0.058732
37.19 	0.056041 	4925 	0.054732
37.23 	0.061000 	4918 	0.059690
37.27 	0.056191 	4894 	0.055353
37.31 	0.061398 	4935 	0.060092
37.35 	0.057311 	4938 	0.056718
37.39 	0.057595 	4931 	0.056526
37.43 	0.060827 	4932 	0.059046
37.47 	0.054169 	4929 	0.053694
37.51 	0.058788 	4933 	0.057343
37.55 	0.054158 	4930 	0.053921
37.59 	0.056765 	4915 	0.055692
37.63 	0.057532 	4919 	0.056698
37.67 	0.051591 	4904 	0.050396
37.71 	0.057821 	4929 	0.057108
37.75 	0.053239 	4940 	0.051816
37.79 	0.058012 	4930 	0.057062
37.83 	0.053049 	4920 	0.052692
37.87 	0.054869 	4939 	0.054158
37.91 	0.050913 	4930 	0.049943
37.95 	0.055883 	4921 	0.055407
37.99 	0.058836 	4912 	0.058120
38.03 	0.057242 	4909 	0.056287
38.07 	0.059279 	4909 	0.058802
38.11 	0.056332 	4935 	0.055739
38.15 	0.056934 	4918 	0.056219
38.19 	0.055578 	4930 	0.054865
38.23 	0.057716 	4938 	0.056510
38.27 	0.065314 	4930 	0.063651
38.31 	0.065963 	4927 	0.065369
38.35 	0.070008 	4928 	0.068701
38.39 	0.073742 	4909 	0.072310
38.43 	0.082181 	4916 	0.080751
38.47 	0.075199 	4907 	0.073647
38.51 	0.072587 	4932 	0.070924
38.55 	0.087318 	4936 	0.085874
38.59 	0.080016 	4924 	0.078450
38.63 	0.078595 	4924 	0.076077
38.67 	0.081831 	4937 	0.080407
38.71 	0.075955 	4924 	0.075003
38.75 	0.071646 	4927 	0.070933
38.79 	0.069923 	4934 	0.068023
38.83 	0.061191 	4919 	0.060120
38.87 	0.062105 	4911 	0.060793
38.91 	0.056904 	4903 	0.055709
38.95 	0.051850 	4918 	0.050778
38.99 	0.057930 	4937 	0.056605
39.03 	0.051885 	4934 	0.050698
39.07 	0.049147 	4924 	0.048790
39.11 	0.045224 	4931 	0.044511
39.15 	0.053103 	4915 	0.051772
39.19 	0.049827 	4917 	0.048993
39.23 	0.049949 	4925 	0.049117
39.27 	0.045214 	4910 	0.044737
39.31 	0.049140 	4884 	0.048061
39.35 	0.049037 	4935 	0.048681
39.39 	0.050517 	4929 	0.049567
39.43 	0.042773 	4933 	0.042179
39.47 	0.048345 	4923 	0.047393
39.51 	0.046507 	4924 	0.046031
39.55 	0.044521 	4919 	0.043688
39.59 	0.048046 	4912 	0.047449
39.63 	0.046729 	4922 	0.045658
39.67 	0.045593 	4913 	0.045236
39.71 	0.048621 	4895 	0.047544
39.75 	0.048498 	4928 	0.048023
39.79 	0.042631 	4926 	0.042274
39.83 	0.046413 	4934 	0.045938
39.87 	0.040406 	4925 	0.039811
39.91 	0.041853 	4922 	0.041139
39.95 	0.042116 	4915 	0.041639
39.99 	0.043593 	4932 	0.043118
40.03 	0.042411 	4928 	0.042054
40.07 	0.045907 	4923 	0.045431
40.11 	0.047396 	4916 	0.046920
40.15 	0.044169 	4913 	0.043930
40.19 	0.041793 	4929 	0.041437
40.23 	0.042174 	4932 	0.041936
40.27 	0.041118 	4937 	0.040525
40.31 	0.039279 	4939 	0.038923
40.35 	0.041878 	4919 	0.041640
40.39 	0.041371 	4931 	0.041015
40.43 	0.045916 	4922 	0.045440
40.47 	0.042497 	4918 	0.041901
40.51 	0.042259 	4922 	0.041783
40.55 	0.035860 	4908 	0.035621
40.59 	0.039498 	4937 	0.038667
40.63 	0.038742 	4930 	0.038505
40.67 	0.041565 	4932 	0.041328
40.71 	0.048662 	4932 	0.047593
40.75 	0.045224 	4931 	0.044868
40.79 	0.043258 	4924 	0.042901
40.83 	0.043222 	4928 	0.042985
40.87 	0.040179 	4928 	0.039703
40.91 	0.045094 	4923 	0.044618
40.95 	0.042133 	4913 	0.041179
40.99 	0.037571 	4924 	0.037214
41.03 	0.039755 	4905 	0.039517
41.07 	0.042799 	4930 	0.042205
41.11 	0.042553 	4935 	0.042316
41.15 	0.040478 	4941 	0.039885
41.19 	0.040568 	4930 	0.039974
41.23 	0.042114 	4939 	0.041521
41.27 	0.043399 	4931 	0.042924
41.31 	0.040138 	4933 	0.039782
41.35 	0.035237 	4938 	0.034762
41.39 	0.041760 	4933 	0.041641
41.43 	0.046865 	4929 	0.046034
41.47 	0.037759 	4926 	0.037283
41.51 	0.043320 	4940 	0.042846
41.55 	0.042756 	4935 	0.042261
41.59 	0.044598 	4933 	0.044004
41.63 	0.040705 	4938 	0.040112
41.67 	0.047571 	4940 	0.047097
41.71 	0.037090 	4934 	0.036615
41.75 	0.036721 	4929 	0.036603
41.79 	0.038026 	4944 	0.037552
41.83 	0.042817 	4928 	0.042460
41.87 	0.041337 	4935 	0.040863
41.91 	0.038290 	4936 	0.037934
41.95 	0.040560 	4931 	0.039609
41.99 	0.038124 	4905 	0.037766
42.03 	0.037457 	4939 	0.036864
42.07 	0.043954 	4937 	0.043242
42.11 	0.038220 	4945 	0.038220
42.15 	0.034427 	4938 	0.033952
42.19 	0.038101 	4908 	0.037266
42.23 	0.041087 	4892 	0.040848
42.27 	0.035084 	4874 	0.034964
42.31 	0.035221 	4855 	0.034739
42.35 	0.040926 	4838 	0.040563
42.39 	0.037261 	4804 	0.037261
42.43 	0.039649 	4792 	0.039405
42.47 	0.038195 	4765 	0.037335
42.51 	0.040902 	4743 	0.040408
42.55 	0.037596 	4708 	0.037347
42.59 	0.035525 	4729 	0.035154
42.63 	0.036738 	4709 	0.036220
42.67 	0.038002 	4684 	0.037627
42.71 	0.036028 	4663 	0.035777
42.75 	0.036604 	4617 	0.036096
42.79 	0.035137 	4582 	0.035010
42.83 	0.030864 	4536 	0.030606
42.87 	0.040453 	4499 	0.040323
42.91 	0.042639 	4456 	0.042376
42.95 	0.038723 	4416 	0.038590
42.99 	0.042417 	4385 	0.041749
43.03 	0.041311 	4333 	0.040500
43.07 	0.037942 	4296 	0.037806
43.11 	0.038308 	4255 	0.037620
43.15 	0.038754 	4206 	0.038476
43.19 	0.041011 	4194 	0.040033
43.23 	0.040924 	4154 	0.040642
43.27 	0.038490 	4105 	0.038062
43.31 	0.038245 	4079 	0.038101
43.35 	0.041419 	4032 	0.040838
43.39 	0.040730 	4002 	0.040583
43.43 	0.035354 	3960 	0.035058
43.47 	0.038001 	3921 	0.037851
43.51 	0.039979 	3877 	0.039828
43.55 	0.032051 	2964 	0.031854
43.59 	0.034937 	1746 	0.034601
43.63 	0.040959 	1001 	0.039789
43.67 	0.043825 	502 	0.042658
43.71 	0.046025 	239 	0.046025
43.75 	0.000000 	16 	0.000000

File: 25SC_s1_0028.001.dat
#F C:\frames\spec\25SC_s1_0028.001
#C title =s:28 frm:1 25SC_s1
#C wavelength =0.15406

#S 1  fr_average C:\frames\spec\25SC_s1_0028.001 C:\win32app\speccom\mask.axs chi 0 180 0 360 0.02
#C 2 theta =0.000000 to 180 deg
#C   q   =0.000000 to 81.568 nm^-1
#C  chi  =0.000000 to 360 deg
#C collumns:
#C  1 position (2theta or chi in degrees)
#C  2 average intensity (sum of all counts in the region divided with number of pixels)
#C  3 Number of pixels in region)
#C  4 error (sum of sqrt(intensity) for all pixels divided by number)
#N 4
#L TTh  Int  N_pix  Err
32.99 	0.049180 	61 	0.049180
33.03 	0.060388 	1391 	0.059125
33.07 	0.065366 	2050 	0.063651
33.11 	0.054672 	2579 	0.053537
33.15 	0.063354 	2999 	0.061792
33.19 	0.058049 	3342 	0.056647
33.23 	0.052796 	3523 	0.052131
33.27 	0.062259 	3630 	0.061291
33.31 	0.057650 	3660 	0.056690
33.35 	0.054413 	3694 	0.053937
33.39 	0.050684 	3729 	0.050055
33.43 	0.053709 	3761 	0.053553
33.47 	0.056345 	3798 	0.055883
33.51 	0.055570 	3815 	0.055109
33.55 	0.063232 	3843 	0.062165
33.59 	0.060309 	3880 	0.060007
33.63 	0.060475 	3919 	0.059129
33.67 	0.061204 	3954 	0.060463
33.71 	0.056101 	3975 	0.054922
33.75 	0.065266 	3999 	0.063362
33.79 	0.056669 	4041 	0.055654
33.83 	0.056049 	4050 	0.055037
33.87 	0.055704 	4111 	0.054707
33.91 	0.060979 	4149 	0.060131
33.95 	0.053815 	4181 	0.053114
33.99 	0.061190 	4200 	0.059773
34.03 	0.058200 	4244 	0.057073
34.07 	0.060684 	4268 	0.059998
34.11 	0.057648 	4302 	0.056650
34.15 	0.057723 	4331 	0.057047
34.19 	0.060293 	4362 	0.058413
34.23 	0.055315 	4393 	0.054649
34.27 	0.061058 	4422 	0.059866
34.31 	0.061238 	4458 	0.060844
34.35 	0.060660 	4484 	0.059223
34.39 	0.060640 	4502 	0.058536
34.43 	0.057502 	4539 	0.056448
34.47 	0.055749 	4592 	0.054856
34.51 	0.054928 	4606 	0.054017
34.55 	0.059660 	4643 	0.058377
34.59 	0.055187 	4675 	0.054686
34.63 	0.055626 	4710 	0.054631
34.67 	0.053575 	4741 	0.052463
34.71 	0.057491 	4766 	0.056507
34.75 	0.060732 	4808 	0.059879
34.79 	0.055348 	4824 	0.054620
34.83 	0.055121 	4862 	0.053917
34.87 	0.057929 	4868 	0.057207
34.91 	0.056125 	4882 	0.055645
34.95 	0.059305 	4890 	0.058586
34.99 	0.062283 	4897 	0.061565
35.03 	0.051588 	4943 	0.050877
35.07 	0.056073 	4940 	0.055361
35.11 	0.051142 	4947 	0.050550
35.15 	0.058538 	4937 	0.057588
35.19 	0.053420 	4942 	0.052827
35.23 	0.062487 	4945 	0.061540
35.27 	0.058205 	4948 	0.057850
35.31 	0.056152 	4933 	0.055183
35.35 	0.053824 	4942 	0.052995
35.39 	0.057230 	4945 	0.056400
35.43 	0.056152 	4933 	0.055440
35.47 	0.057798 	4931 	0.056966
35.51 	0.052984 	4926 	0.052271
35.55 	0.051365 	4945 	0.050180
35.59 	0.055005 	4945 	0.054413
35.63 	0.053409 	4943 	0.052698
35.67 	0.058276 	4942 	0.057565
35.71 	0.052056 	4937 	0.050850
35.75 	0.057392 	4931 	0.056422
35.79 	0.053933 	4932 	0.053340
35.83 	0.058027 	4946 	0.057316
35.87 	0.061751 	4923 	0.060442
35.91 	0.053582 	4927 	0.052869
35.95 	0.050234 	4917 	0.050115
35.99 	0.058109 	4939 	0.057022
36.03 	0.056646 	4943 	0.055816
36.07 	0.058716 	4939 	0.057867
36.11 	0.049706 	4929 	0.048993
36.15 	0.056084 	4939 	0.055728
36.19 	0.053441 	4940 	0.052236
36.23 	0.052685 	4935 	0.051379
36.27 	0.053198 	4925 	0.052484
36.31 	0.055804 	4928 	0.054853
36.35 	0.053763 	4929 	0.052456
36.39 	0.056086 	4921 	0.055134
36.43 	0.058644 	4928 	0.057694
36.47 	0.059765 	4936 	0.058578
36.51 	0.054531 	4933 	0.053699
36.55 	0.055815 	4927 	0.055102
36.59 	0.061348 	4939 	0.059807
36.63 	0.049686 	4931 	0.048735
36.67 	0.057606 	4930 	0.057131
36.71 	0.054460 	4921 	0.053746
36.75 	0.057848 	4944 	0.056782
36.79 	0.053851 	4921 	0.053494
36.83 	0.051272 	4915 	0.050676
36.87 	0.056028 	4944 	0.054606
36.91 	0.053026 	4941 	0.052077
36.95 	0.053517 	4933 	0.052805
36.99 	0.056535 	4935 	0.055348
37.03 	0.053209 	4924 	0.052733
37.07 	0.062209 	4935 	0.061497
37.11 	0.053901 	4935 	0.053189
37.15 	0.061316 	4909 	0.060361
37.19 	0.059492 	4925 	0.057946
37.23 	0.047987 	4918 	0.047034
37.27 	0.060074 	4894 	0.059475
37.31 	0.056535 	4935 	0.055210
37.35 	0.049413 	4938 	0.048701
37.39 	0.055567 	4931 	0.054973
37.43 	0.053122 	4932 	0.052647
37.47 	0.050517 	4929 	0.049923
37.51 	0.049260 	4933 	0.048548
37.55 	0.054158 	4930 	0.053326
37.59 	0.047813 	4915 	0.047574
37.63 	0.055499 	4919 	0.055142
37.67 	0.056077 	4904 	0.055241
37.71 	0.054575 	4929 	0.053743
37.75 	0.049798 	4940 	0.049086
37.79 	0.057809 	4930 	0.056978
37.83 	0.056504 	4920 	0.055433
37.87 	0.054667 	4939 	0.053817
37.91 	0.052535 	4930 	0.051347
37.95 	0.059541 	4921 	0.058350
37.99 	0.054967 	4912 	0.054013
38.03 	0.056631 	4909 	0.055795
38.07 	0.052557 	4909 	0.051841
38.11 	0.065653 	4935 	0.063497
38.15 	0.061000 	4918 	0.060405
38.19 	0.054564 	4930 	0.053613
38.23 	0.056096 	4938 	0.054178
38.27 	0.060041 	4930 	0.058615
38.31 	0.062716 	4927 	0.061269
38.35 	0.061485 	4928 	0.060653
38.39 	0.069872 	4909 	0.068778
38.43 	0.070789 	4916 	0.070074
38.47 	0.072346 	4907 	0.070555
38.51 	0.079075 	4932 	0.077769
38.55 	0.072934 	4936 	0.071747
38.59 	0.072502 	4924 	0.070123
38.63 	0.072299 	4924 	0.071109
38.67 	0.077577 	4937 	0.076154
38.71 	0.072502 	4924 	0.071074
38.75 	0.053379 	4927 	0.052785
38.79 	0.060195 	4934 	0.058889
38.83 	0.065664 	4919 	0.063997
38.87 	0.056608 	4911 	0.055296
38.91 	0.054456 	4903 	0.053501
38.95 	0.056324 	4918 	0.055371
38.99 	0.052056 	4937 	0.051819
39.03 	0.047021 	4934 	0.046427
39.07 	0.048538 	4924 	0.048161
39.11 	0.047658 	4931 	0.047044
39.15 	0.050051 	4915 	0.049217
39.19 	0.052471 	4917 	0.051637
39.23 	0.047107 	4925 	0.046393
39.27 	0.047047 	4910 	0.046570
39.31 	0.045250 	4884 	0.044890
39.35 	0.045187 	4935 	0.044357
39.39 	0.044431 	4929 	0.044074
39.43 	0.046219 	4933 	0.045982
39.47 	0.050985 	4923 	0.050271
39.51 	0.036353 	4924 	0.036115
39.55 	0.044725 	4919 	0.044605
39.59 	0.045806 	4912 	0.045210
39.63 	0.043478 	4922 	0.043002
39.67 	0.043965 	4913 	0.043250
39.71 	0.043309 	4895 	0.042950
39.75 	0.040584 	4928 	0.039990
39.79 	0.046691 	4926 	0.045978
39.83 	0.042156 	4934 	0.041444
39.87 	0.042640 	4925 	0.042283
39.91 	0.042259 	4922 	0.041902
39.95 	0.049440 	4915 	0.048467
39.99 	0.042376 	4932 	0.042258
40.03 	0.047281 	4928 	0.046805
40.07 	0.040626 	4923 	0.040388
40.11 	0.047193 	4916 	0.046955
40.15 	0.040912 	4913 	0.040316
40.19 	0.041591 	4929 	0.040977
40.23 	0.044809 	4932 	0.044453
40.27 	0.041726 	4937 	0.041607
40.31 	0.037457 	4939 	0.036745
40.35 	0.044725 	4919 	0.044486
40.39 	0.039343 	4931 	0.038987
40.43 	0.044088 	4922 	0.043493
40.47 	0.043920 	4918 	0.043563
40.51 	0.045916 	4922 	0.045202
40.55 	0.045029 	4908 	0.044193
40.59 	0.045777 	4937 	0.045421
40.63 	0.045030 	4930 	0.044555
40.67 	0.042579 	4932 	0.042460
40.71 	0.037510 	4932 	0.036916
40.75 	0.040357 	4931 	0.040001
40.79 	0.046304 	4924 	0.044757
40.83 	0.039367 	4928 	0.038773
40.87 	0.043831 	4928 	0.043475
40.91 	0.042251 	4923 	0.041894
40.95 	0.041522 	4913 	0.041284
40.99 	0.039602 	4924 	0.039245
41.03 	0.042202 	4905 	0.041844
41.07 	0.042394 	4930 	0.041799
41.11 	0.047822 	4935 	0.046734
41.15 	0.041085 	4941 	0.040255
41.19 	0.035700 	4930 	0.035343
41.23 	0.034217 	4939 	0.034099
41.27 	0.047049 	4931 	0.046574
41.31 	0.039327 	4933 	0.038852
41.35 	0.039287 	4938 	0.039169
41.39 	0.039327 	4933 	0.038971
41.43 	0.045445 	4929 	0.044970
41.47 	0.044458 	4926 	0.044101
41.51 	0.041700 	4940 	0.040870
41.55 	0.036474 	4935 	0.036118
41.59 	0.035881 	4933 	0.035762
41.63 	0.036857 	4938 	0.036738
41.67 	0.036842 	4940 	0.036724
41.71 	0.035468 	4934 	0.034637
41.75 	0.040982 	4929 	0.040507
41.79 	0.045712 	4944 	0.045593
41.83 	0.035511 	4928 	0.035036
41.87 	0.039716 	4935 	0.039123
41.91 	0.039100 	4936 	0.038863
41.95 	0.041168 	4931 	0.040574
41.99 	0.042610 	4905 	0.041774
42.03 	0.037255 	4939 	0.037017
42.07 	0.040105 	4937 	0.039749
42.11 	0.037816 	4945 	0.037698
42.15 	0.037060 	4938 	0.036585
42.19 	0.040546 	4908 	0.039830
42.23 	0.036795 	4892 	0.036555
42.27 	0.034469 	4874 	0.034228
42.31 	0.036457 	4855 	0.035854
42.35 	0.039893 	4838 	0.039529
42.39 	0.040591 	4804 	0.039596
42.43 	0.035684 	4792 	0.035073
42.47 	0.041763 	4765 	0.041271
42.51 	0.038372 	4743 	0.037878
42.55 	0.039295 	4708 	0.039046
42.59 	0.035525 	4729 	0.034658
42.63 	0.041622 	4709 	0.041374
42.67 	0.038429 	4684 	0.037928
42.71 	0.038816 	4663 	0.038565
42.75 	0.038553 	4617 	0.038299
42.79 	0.033173 	4582 	0.032790
42.83 	0.032407 	4536 	0.032278
42.87 	0.037119 	4499 	0.036599
42.91 	0.041068 	4456 	0.040148
42.95 	0.039629 	4416 	0.039231
42.99 	0.036716 	4385 	0.036182
43.03 	0.035080 	4333 	0.035080
43.07 	0.035615 	4296 	0.035342
43.11 	0.036663 	4255 	0.036112
43.15 	0.040894 	4206 	0.040476
43.19 	0.039819 	4194 	0.039539
43.23 	0.041887 	4154 	0.041182
43.27 	0.042875 	4105 	0.042589
43.31 	0.038000 	4079 	0.037569
43.35 	0.039187 	4032 	0.039041
43.39 	0.037731 	4002 	0.037585
43.43 	0.038384 	3960 	0.038384
43.47 	0.041826 	3921 	0.041228
43.51 	0.039464 	3877 	0.039010
43.55 	0.037787 	2964 	0.037194
43.59 	0.038946 	1746 	0.038946
43.63 	0.033966 	1001 	0.033966
43.67 	0.033865 	502 	0.032698
43.71 	0.054393 	239 	0.054393
43.75 	0.000000 	16 	0.000000