Folder: Bessy-II-KMC-II-insitu-sin2psi/Example_Data (part 126)

File: 25SC_s1_0050.004.dat
#F C:\frames\spec\25SC_s1_0050.004
#C title =s:50 frm:4 25SC_s1
#C wavelength =0.15406

#S 1  fr_average C:\frames\spec\25SC_s1_0050.004 C:\win32app\speccom\mask.axs chi 0 180 0 360 0.02
#C 2 theta =0.000000 to 180 deg
#C   q   =0.000000 to 81.568 nm^-1
#C  chi  =0.000000 to 360 deg
#C collumns:
#C  1 position (2theta or chi in degrees)
#C  2 average intensity (sum of all counts in the region divided with number of pixels)
#C  3 Number of pixels in region)
#C  4 error (sum of sqrt(intensity) for all pixels divided by number)
#N 4
#L TTh  Int  N_pix  Err
32.99 	0.032787 	61 	0.032787
33.03 	0.053918 	1391 	0.053076
33.07 	0.050732 	2050 	0.049589
33.11 	0.062040 	2579 	0.061585
33.15 	0.058353 	2999 	0.056595
33.19 	0.052663 	3342 	0.052488
33.23 	0.061879 	3523 	0.061048
33.27 	0.059780 	3630 	0.058811
33.31 	0.057104 	3660 	0.055957
33.35 	0.053871 	3694 	0.053078
33.39 	0.060070 	3729 	0.059258
33.43 	0.064345 	3761 	0.063877
33.47 	0.063981 	3798 	0.063210
33.51 	0.059240 	3815 	0.058933
33.55 	0.057247 	3843 	0.056485
33.59 	0.060825 	3880 	0.060221
33.63 	0.053330 	3919 	0.052284
33.67 	0.063480 	3954 	0.062443
33.71 	0.062138 	3975 	0.061402
33.75 	0.057014 	3999 	0.056428
33.79 	0.058649 	4041 	0.057634
33.83 	0.055556 	4050 	0.055122
33.87 	0.064218 	4111 	0.063363
33.91 	0.058327 	4149 	0.057621
33.95 	0.055250 	4181 	0.054129
33.99 	0.056429 	4200 	0.055731
34.03 	0.055137 	4244 	0.054861
34.07 	0.060216 	4268 	0.059804
34.11 	0.063226 	4302 	0.062409
34.15 	0.061187 	4331 	0.060781
34.19 	0.061898 	4362 	0.060824
34.23 	0.057592 	4393 	0.056525
34.27 	0.059475 	4422 	0.058924
34.31 	0.056079 	4458 	0.055553
34.35 	0.062221 	4484 	0.060763
34.39 	0.059307 	4502 	0.058266
34.43 	0.053316 	4539 	0.052283
34.47 	0.062718 	4592 	0.061676
34.51 	0.055363 	4606 	0.054345
34.55 	0.061167 	4643 	0.059759
34.59 	0.055187 	4675 	0.054310
34.63 	0.059448 	4710 	0.058577
34.67 	0.056739 	4741 	0.055009
34.71 	0.057910 	4766 	0.057419
34.75 	0.063228 	4808 	0.062010
34.79 	0.060116 	4824 	0.059023
34.83 	0.059852 	4862 	0.059129
34.87 	0.059367 	4868 	0.058505
34.91 	0.061655 	4882 	0.060455
34.95 	0.054806 	4890 	0.053468
34.99 	0.057178 	4897 	0.055603
35.03 	0.061097 	4943 	0.060030
35.07 	0.059312 	4940 	0.058363
35.11 	0.057409 	4947 	0.056343
35.15 	0.059753 	4937 	0.058566
35.19 	0.059490 	4942 	0.058660
35.23 	0.064510 	4945 	0.062694
35.27 	0.064470 	4948 	0.063287
35.31 	0.056355 	4933 	0.055405
35.35 	0.055038 	4942 	0.053834
35.39 	0.055005 	4945 	0.054176
35.43 	0.060409 	4933 	0.058510
35.47 	0.062665 	4931 	0.061596
35.51 	0.062525 	4926 	0.061317
35.55 	0.055207 	4945 	0.054378
35.59 	0.061072 	4945 	0.059887
35.63 	0.052195 	4943 	0.051109
35.67 	0.057871 	4942 	0.057397
35.71 	0.060361 	4937 	0.059767
35.75 	0.062259 	4931 	0.061546
35.79 	0.060016 	4932 	0.058690
35.83 	0.056611 	4946 	0.055427
35.87 	0.054032 	4923 	0.052842
35.91 	0.055612 	4927 	0.054542
35.95 	0.058572 	4917 	0.057381
35.99 	0.054667 	4939 	0.053600
36.03 	0.061299 	4943 	0.060232
36.07 	0.062766 	4939 	0.062173
36.11 	0.059038 	4929 	0.058444
36.15 	0.054667 	4939 	0.054074
36.19 	0.058502 	4940 	0.057435
36.23 	0.057953 	4935 	0.056984
36.27 	0.057868 	4925 	0.057154
36.31 	0.052963 	4928 	0.052249
36.35 	0.063502 	4929 	0.062432
36.39 	0.054867 	4921 	0.054034
36.43 	0.062906 	4928 	0.062054
36.47 	0.054700 	4936 	0.054225
36.51 	0.051287 	4933 	0.050456
36.55 	0.058453 	4927 	0.056650
36.59 	0.054060 	4939 	0.052973
36.63 	0.053336 	4931 	0.052504
36.67 	0.061460 	4930 	0.060510
36.71 	0.053648 	4921 	0.053052
36.75 	0.059871 	4944 	0.058449
36.79 	0.057305 	4921 	0.055996
36.83 	0.061241 	4915 	0.060407
36.87 	0.048341 	4944 	0.047631
36.91 	0.058693 	4941 	0.057626
36.95 	0.056355 	4933 	0.054792
36.99 	0.058156 	4935 	0.056850
37.03 	0.057474 	4924 	0.056522
37.07 	0.053698 	4935 	0.052986
37.11 	0.053090 	4935 	0.052259
37.15 	0.050723 	4909 	0.049769
37.19 	0.054010 	4925 	0.053297
37.23 	0.054900 	4918 	0.054047
37.27 	0.055783 	4894 	0.055064
37.31 	0.058156 	4935 	0.057088
37.35 	0.055488 	4938 	0.054658
37.39 	0.054958 	4931 	0.054364
37.43 	0.052920 	4932 	0.052326
37.47 	0.061676 	4929 	0.060725
37.51 	0.058990 	4933 	0.057764
37.55 	0.050507 	4930 	0.049675
37.59 	0.056562 	4915 	0.055350
37.63 	0.049807 	4919 	0.048973
37.67 	0.050775 	4904 	0.050655
37.71 	0.059038 	4929 	0.058206
37.75 	0.051417 	4940 	0.050449
37.79 	0.055375 	4930 	0.054306
37.83 	0.056707 	4920 	0.056092
37.87 	0.059121 	4939 	0.058528
37.91 	0.058418 	4930 	0.057348
37.95 	0.051209 	4921 	0.050257
37.99 	0.053746 	4912 	0.052434
38.03 	0.058057 	4909 	0.057102
38.07 	0.055612 	4909 	0.054658
38.11 	0.052077 	4935 	0.051009
38.15 	0.056120 	4918 	0.055148
38.19 	0.060852 	4930 	0.059664
38.23 	0.055083 	4938 	0.053759
38.27 	0.052941 	4930 	0.052228
38.31 	0.062310 	4927 	0.061359
38.35 	0.057833 	4928 	0.056763
38.39 	0.060297 	4909 	0.059820
38.43 	0.066517 	4916 	0.064611
38.47 	0.066028 	4907 	0.064596
38.51 	0.063869 	4932 	0.062325
38.55 	0.066856 	4936 	0.065550
38.59 	0.062551 	4924 	0.061242
38.63 	0.071690 	4924 	0.070024
38.67 	0.067855 	4937 	0.066668
38.71 	0.068237 	4924 	0.066433
38.75 	0.063933 	4927 	0.062744
38.79 	0.058370 	4934 	0.057421
38.83 	0.051230 	4919 	0.050754
38.87 	0.051721 	4911 	0.050528
38.91 	0.053641 	4903 	0.053282
38.95 	0.055917 	4918 	0.055321
38.99 	0.061981 	4937 	0.060557
39.03 	0.051277 	4934 	0.050802
39.07 	0.051381 	4924 	0.050429
39.11 	0.048672 	4931 	0.048434
39.15 	0.054527 	4915 	0.054289
39.19 	0.052674 	4917 	0.051960
39.23 	0.055431 	4925 	0.054242
39.27 	0.052953 	4910 	0.051522
39.31 	0.050369 	4884 	0.049769
39.35 	0.056738 	4935 	0.055432
39.39 	0.044837 	4929 	0.044104
39.43 	0.051287 	4933 	0.050575
39.47 	0.050579 	4923 	0.050103
39.51 	0.055849 	4924 	0.054540
39.55 	0.053466 	4919 	0.052871
39.59 	0.057614 	4912 	0.056183
39.63 	0.050996 	4922 	0.050043
39.67 	0.056585 	4913 	0.055988
39.71 	0.054137 	4895 	0.052940
39.75 	0.050731 	4928 	0.050612
39.79 	0.057044 	4926 	0.055617
39.83 	0.057560 	4934 	0.056373
39.87 	0.054822 	4925 	0.054109
39.91 	0.060138 	4922 	0.059305
39.95 	0.060020 	4915 	0.058948
39.99 	0.052717 	4932 	0.052242
40.03 	0.055398 	4928 	0.055160
40.07 	0.053829 	4923 	0.052619
40.11 	0.052889 	4916 	0.051935
40.15 	0.050275 	4913 	0.049082
40.19 	0.046460 	4929 	0.045509
40.23 	0.050487 	4932 	0.049497
40.27 	0.050841 	4937 	0.050247
40.31 	0.050820 	4939 	0.049871
40.35 	0.049400 	4919 	0.048805
40.39 	0.050091 	4931 	0.049121
40.43 	0.046932 	4922 	0.046218
40.47 	0.051444 	4918 	0.050372
40.51 	0.052011 	4922 	0.051535
40.55 	0.050530 	4908 	0.049794
40.59 	0.052258 	4937 	0.051665
40.63 	0.049087 	4930 	0.048374
40.67 	0.053933 	4932 	0.052983
40.71 	0.051703 	4932 	0.050991
40.75 	0.048672 	4931 	0.048078
40.79 	0.050569 	4924 	0.049974
40.83 	0.049107 	4928 	0.048037
40.87 	0.055398 	4928 	0.054427
40.91 	0.043266 	4923 	0.043028
40.95 	0.054549 	4913 	0.053357
40.99 	0.053615 	4924 	0.052901
41.03 	0.056065 	4905 	0.055468
41.07 	0.056998 	4930 	0.055453
41.11 	0.046606 	4935 	0.046012
41.15 	0.053835 	4941 	0.053124
41.19 	0.046450 	4930 	0.046094
41.23 	0.047176 	4939 	0.046464
41.27 	0.049888 	4931 	0.049413
41.31 	0.051895 	4933 	0.051183
41.35 	0.047388 	4938 	0.047269
41.39 	0.045408 	4933 	0.044577
41.43 	0.053358 	4929 	0.052407
41.47 	0.048315 	4926 	0.047483
41.51 	0.051822 	4940 	0.051110
41.55 	0.050253 	4935 	0.049778
41.59 	0.053923 	4933 	0.052716
41.63 	0.054070 	4938 	0.052528
41.67 	0.046559 	4940 	0.046084
41.71 	0.050669 	4934 	0.050075
41.75 	0.058024 	4929 	0.057311
41.79 	0.049960 	4944 	0.049486
41.83 	0.043019 	4928 	0.042544
41.87 	0.050659 	4935 	0.049828
41.91 	0.048217 	4936 	0.047861
41.95 	0.047455 	4931 	0.046505
41.99 	0.045464 	4905 	0.045106
42.03 	0.051427 	4939 	0.050597
42.07 	0.049018 	4937 	0.048424
42.11 	0.049545 	4945 	0.048459
42.15 	0.044755 	4938 	0.044162
42.19 	0.048696 	4908 	0.047980
42.23 	0.041701 	4892 	0.041342
42.27 	0.044727 	4874 	0.044367
42.31 	0.051081 	4855 	0.050719
42.35 	0.050021 	4838 	0.048810
42.39 	0.046420 	4804 	0.045912
42.43 	0.056970 	4792 	0.055748
42.47 	0.043022 	4765 	0.042653
42.51 	0.046173 	4743 	0.045432
42.55 	0.046092 	4708 	0.045470
42.59 	0.044195 	4729 	0.043700
42.63 	0.050966 	4709 	0.050469
42.67 	0.040350 	4684 	0.039975
42.71 	0.044821 	4663 	0.043690
42.75 	0.050249 	4617 	0.049615
42.79 	0.042340 	4582 	0.041828
42.83 	0.041887 	4536 	0.041500
42.87 	0.049789 	4499 	0.049268
42.91 	0.047576 	4456 	0.047313
42.95 	0.048913 	4416 	0.048228
42.99 	0.047662 	4385 	0.046727
43.03 	0.043850 	4333 	0.043038
43.07 	0.049581 	4296 	0.048899
43.11 	0.051234 	4255 	0.050270
43.15 	0.048027 	4206 	0.047748
43.19 	0.044349 	4194 	0.043371
43.23 	0.046702 	4154 	0.045551
43.27 	0.043362 	4105 	0.042791
43.31 	0.043883 	4079 	0.043309
43.35 	0.046379 	4032 	0.045362
43.39 	0.044228 	4002 	0.043057
43.43 	0.046970 	3960 	0.046082
43.47 	0.048712 	3921 	0.047965
43.51 	0.043848 	3877 	0.043244
43.55 	0.047908 	2964 	0.047118
43.59 	0.049828 	1746 	0.049493
43.63 	0.048951 	1001 	0.048366
43.67 	0.037849 	502 	0.037849
43.71 	0.050209 	239 	0.047758
43.75 	0.000000 	16 	0.000000

File: 25SC_s1_0051.000.dat
#F C:\frames\spec\25SC_s1_0051.000
#C title =s:51 frm:0 25SC_s1
#C wavelength =0.15406

#S 1  fr_average C:\frames\spec\25SC_s1_0051.000 C:\win32app\speccom\mask.axs chi 0 180 0 360 0.02
#C 2 theta =0.000000 to 180 deg
#C   q   =0.000000 to 81.568 nm^-1
#C  chi  =0.000000 to 360 deg
#C collumns:
#C  1 position (2theta or chi in degrees)
#C  2 average intensity (sum of all counts in the region divided with number of pixels)
#C  3 Number of pixels in region)
#C  4 error (sum of sqrt(intensity) for all pixels divided by number)
#N 4
#L TTh  Int  N_pix  Err
32.99 	0.032787 	61 	0.032787
33.03 	0.053918 	1391 	0.053076
33.07 	0.060000 	2050 	0.059429
33.11 	0.067080 	2579 	0.065490
33.15 	0.052684 	2999 	0.051708
33.19 	0.060144 	3342 	0.059267
33.23 	0.058189 	3523 	0.057856
33.27 	0.059780 	3630 	0.058489
33.31 	0.061475 	3660 	0.059715
33.35 	0.063617 	3694 	0.062507
33.39 	0.062215 	3729 	0.061587
33.43 	0.053975 	3761 	0.053040
33.47 	0.056345 	3798 	0.054752
33.51 	0.052163 	3815 	0.051241
33.55 	0.059068 	3843 	0.058306
33.59 	0.063402 	3880 	0.061741
33.63 	0.060219 	3919 	0.059173
33.67 	0.061204 	3954 	0.060167
33.71 	0.058365 	3975 	0.057186
33.75 	0.057764 	3999 	0.057471
33.79 	0.062856 	4041 	0.061696
33.83 	0.056543 	4050 	0.055241
33.87 	0.061542 	4111 	0.059524
33.91 	0.056640 	4149 	0.055511
33.95 	0.058838 	4181 	0.057857
33.99 	0.060952 	4200 	0.060116
34.03 	0.062912 	4244 	0.061647
34.07 	0.053655 	4268 	0.052694
34.11 	0.063459 	4302 	0.062642
34.15 	0.054953 	4331 	0.053578
34.19 	0.057084 	4362 	0.055987
34.23 	0.058275 	4393 	0.057341
34.27 	0.059475 	4422 	0.058681
34.31 	0.057873 	4458 	0.056822
34.35 	0.058207 	4484 	0.057292
34.39 	0.053754 	4502 	0.052843
34.43 	0.057061 	4539 	0.056545
34.47 	0.052918 	4592 	0.052153
34.51 	0.056882 	4606 	0.055865
34.55 	0.057506 	4643 	0.056875
34.59 	0.057540 	4675 	0.056412
34.63 	0.054565 	4710 	0.054316
34.67 	0.052310 	4741 	0.050951
34.71 	0.052455 	4766 	0.051349
34.75 	0.054285 	4808 	0.053675
34.79 	0.057629 	4824 	0.056779
34.83 	0.053887 	4862 	0.053646
34.87 	0.050740 	4868 	0.050018
34.91 	0.054281 	4882 	0.053561
34.95 	0.049489 	4890 	0.048650
34.99 	0.060241 	4897 	0.059404
35.03 	0.054623 	4943 	0.053912
35.07 	0.057692 	4940 	0.056269
35.11 	0.052961 	4947 	0.051659
35.15 	0.057120 	4937 	0.056487
35.19 	0.059085 	4942 	0.057070
35.23 	0.058847 	4945 	0.058018
35.27 	0.055376 	4948 	0.054883
35.31 	0.052504 	4933 	0.051554
35.35 	0.056860 	4942 	0.056385
35.39 	0.057836 	4945 	0.057125
35.43 	0.052706 	4933 	0.051875
35.47 	0.051308 	4931 	0.050338
35.51 	0.058871 	4926 	0.057682
35.55 	0.056421 	4945 	0.055591
35.59 	0.054398 	4945 	0.053806
35.63 	0.062917 	4943 	0.061140
35.67 	0.056050 	4942 	0.055102
35.71 	0.052866 	4937 	0.051798
35.75 	0.063476 	4931 	0.062506
35.79 	0.061638 	4932 	0.060213
35.83 	0.062475 	4946 	0.061152
35.87 	0.059110 	4923 	0.057801
35.91 	0.052365 	4927 	0.051889
35.95 	0.059182 	4917 	0.058468
35.99 	0.052642 	4939 	0.052286
36.03 	0.062108 	4943 	0.061160
36.07 	0.059729 	4939 	0.058305
36.11 	0.055792 	4929 	0.054604
36.15 	0.052237 	4939 	0.051407
36.19 	0.057692 	4940 	0.057099
36.23 	0.063425 	4935 	0.062356
36.27 	0.060305 	4925 	0.058758
36.31 	0.060674 	4928 	0.059703
36.35 	0.052343 	4929 	0.051511
36.39 	0.061166 	4921 	0.059381
36.43 	0.059456 	4928 	0.058605
36.47 	0.056321 	4936 	0.055253
36.51 	0.056761 	4933 	0.055692
36.55 	0.053582 	4927 	0.052988
36.59 	0.063171 	4939 	0.062558
36.63 	0.058406 	4931 	0.056842
36.67 	0.054767 	4930 	0.053341
36.71 	0.057102 	4921 	0.056269
36.75 	0.053600 	4944 	0.053008
36.79 	0.059744 	4921 	0.059268
36.83 	0.059003 	4915 	0.058030
36.87 	0.057848 	4944 	0.056051
36.91 	0.054240 	4941 	0.053766
36.95 	0.059801 	4933 	0.059208
36.99 	0.056332 	4935 	0.055363
37.03 	0.061129 	4924 	0.059682
37.07 	0.058359 	4935 	0.057765
37.11 	0.056332 	4935 	0.055739
37.15 	0.060705 	4909 	0.059989
37.19 	0.056244 	4925 	0.055173
37.23 	0.062220 	4918 	0.061387
37.27 	0.052105 	4894 	0.051626
37.31 	0.057751 	4935 	0.057157
37.35 	0.061563 	4938 	0.060496
37.39 	0.054958 	4931 	0.054602
37.43 	0.053731 	4932 	0.052662
37.47 	0.057618 	4929 	0.056430
37.51 	0.056355 	4933 	0.055286
37.55 	0.057606 	4930 	0.055943
37.59 	0.054527 	4915 	0.054050
37.63 	0.058955 	4919 	0.058241
37.67 	0.061582 	4904 	0.060507
37.71 	0.054778 	4929 	0.054302
37.75 	0.059919 	4940 	0.058852
37.79 	0.050710 	4930 	0.050591
37.83 	0.061789 	4920 	0.061193
37.87 	0.057502 	4939 	0.056671
37.91 	0.054361 	4930 	0.053767
37.95 	0.055477 	4921 	0.054643
37.99 	0.061686 	4912 	0.060235
38.03 	0.057038 	4909 	0.055845
38.07 	0.059890 	4909 	0.058180
38.11 	0.056535 	4935 	0.056416
38.15 	0.058560 	4918 	0.057250
38.19 	0.058418 	4930 	0.057467
38.23 	0.067639 	4938 	0.066334
38.27 	0.069574 	4930 	0.067891
38.31 	0.070834 	4927 	0.069368
38.35 	0.072240 	4928 	0.070675
38.39 	0.080057 	4909 	0.078386
38.43 	0.082587 	4916 	0.080423
38.47 	0.077033 	4907 	0.074745
38.51 	0.078264 	4932 	0.076958
38.55 	0.079011 	4936 	0.077330
38.59 	0.069050 	4924 	0.067622
38.63 	0.067425 	4924 	0.065521
38.67 	0.066842 	4937 	0.065300
38.71 	0.064175 	4924 	0.062986
38.75 	0.057845 	4927 	0.056893
38.79 	0.059789 	4934 	0.058839
38.83 	0.047164 	4919 	0.046450
38.87 	0.050499 	4911 	0.050022
38.91 	0.049561 	4903 	0.048367
38.95 	0.049410 	4918 	0.049172
38.99 	0.051246 	4937 	0.050652
39.03 	0.052493 	4934 	0.051781
39.07 	0.049756 	4924 	0.049280
39.11 	0.047252 	4931 	0.046658
39.15 	0.047406 	4915 	0.046691
39.19 	0.045353 	4917 	0.044995
39.23 	0.047513 	4925 	0.046323
39.27 	0.045621 	4910 	0.045502
39.31 	0.042793 	4884 	0.042193
39.35 	0.048024 	4935 	0.047668
39.39 	0.045242 	4929 	0.044886
39.43 	0.042570 	4933 	0.041977
39.47 	0.042657 	4923 	0.042419
39.51 	0.042648 	4924 	0.041934
39.55 	0.043098 	4919 	0.042364
39.59 	0.042142 	4912 	0.042022
39.63 	0.045307 	4922 	0.044474
39.67 	0.047018 	4913 	0.046541
39.71 	0.042697 	4895 	0.042577
39.75 	0.040787 	4928 	0.039698
39.79 	0.040195 	4926 	0.039600
39.83 	0.047426 	4934 	0.046595
39.87 	0.049340 	4925 	0.048508
39.91 	0.045916 	4922 	0.045202
39.95 	0.044761 	4915 	0.043927
39.99 	0.045418 	4932 	0.044943
40.03 	0.040990 	4928 	0.040753
40.07 	0.043266 	4923 	0.042414
40.11 	0.043328 	4916 	0.042613
40.15 	0.040098 	4913 	0.039382
40.19 	0.037533 	4929 	0.036800
40.23 	0.041363 	4932 	0.040531
40.27 	0.043549 	4937 	0.042718
40.31 	0.042721 	4939 	0.042721
40.35 	0.043708 	4919 	0.042994
40.39 	0.042993 	4931 	0.042637
40.43 	0.041650 	4922 	0.041412
40.47 	0.038837 	4918 	0.038241
40.51 	0.038196 	4922 	0.037601
40.55 	0.041565 	4908 	0.041326
40.59 	0.040308 	4937 	0.040071
40.63 	0.042799 	4930 	0.042067
40.67 	0.037105 	4932 	0.036748
40.71 	0.038929 	4932 	0.038573
40.75 	0.036707 	4931 	0.036588
40.79 	0.041227 	4924 	0.040751
40.83 	0.038961 	4928 	0.038367
40.87 	0.043019 	4928 	0.042187
40.91 	0.041641 	4923 	0.041284
40.95 	0.042947 	4913 	0.042232
40.99 	0.039805 	4924 	0.039210
41.03 	0.045668 	4905 	0.044593
41.07 	0.043408 	4930 	0.042932
41.11 	0.038906 	4935 	0.038431
41.15 	0.040275 	4941 	0.040038
41.19 	0.041988 	4930 	0.041394
41.23 	0.032598 	4939 	0.032479
41.27 	0.046846 	4931 	0.045777
41.31 	0.042773 	4933 	0.042536
41.35 	0.039895 	4938 	0.039302
41.39 	0.036692 	4933 	0.036335
41.43 	0.039562 	4929 	0.039205
41.47 	0.036744 	4926 	0.036030
41.51 	0.044939 	4940 	0.044228
41.55 	0.041135 	4935 	0.040522
41.59 	0.036692 	4933 	0.036217
41.63 	0.035844 	4938 	0.035726
41.67 	0.046356 	4940 	0.045645
41.71 	0.035874 	4934 	0.035755
41.75 	0.037330 	4929 	0.036974
41.79 	0.036812 	4944 	0.036575
41.83 	0.037744 	4928 	0.037625
41.87 	0.039514 	4935 	0.039158
41.91 	0.034846 	4936 	0.034490
41.95 	0.033056 	4931 	0.032819
41.99 	0.037309 	4905 	0.036712
42.03 	0.041709 	4939 	0.040760
42.07 	0.039903 	4937 	0.039784
42.11 	0.037209 	4945 	0.037091
42.15 	0.034022 	4938 	0.033785
42.19 	0.036879 	4908 	0.036620
42.23 	0.042110 	4892 	0.041990
42.27 	0.040624 	4874 	0.039542
42.31 	0.041195 	4855 	0.040229
42.35 	0.035138 	4838 	0.034654
42.39 	0.034555 	4804 	0.034189
42.43 	0.036311 	4792 	0.035944
42.47 	0.037985 	4765 	0.037002
42.51 	0.037951 	4743 	0.037457
42.55 	0.037808 	4708 	0.037559
42.59 	0.034468 	4729 	0.034220
42.63 	0.039924 	4709 	0.039426
42.67 	0.038856 	4684 	0.037835
42.71 	0.039888 	4663 	0.039260
42.75 	0.034438 	4617 	0.034184
42.79 	0.039502 	4582 	0.038970
42.83 	0.032628 	4536 	0.032499
42.87 	0.037786 	4499 	0.037526
42.91 	0.037926 	4456 	0.037401
42.95 	0.035326 	4416 	0.034663
42.99 	0.036488 	4385 	0.036221
43.03 	0.036464 	4333 	0.035924
43.07 	0.035847 	4296 	0.035575
43.11 	0.035488 	4255 	0.035350
43.15 	0.032810 	4206 	0.032810
43.19 	0.036958 	4194 	0.036678
43.23 	0.031295 	4154 	0.031295
43.27 	0.036054 	4105 	0.035911
43.31 	0.036774 	4079 	0.036343
43.35 	0.038194 	4032 	0.037759
43.39 	0.033983 	4002 	0.033690
43.43 	0.038384 	3960 	0.037940
43.47 	0.039786 	3921 	0.039338
43.51 	0.033789 	3877 	0.033336
43.55 	0.039811 	2964 	0.039613
43.59 	0.040664 	1746 	0.039658
43.63 	0.030969 	1001 	0.030384
43.67 	0.047809 	502 	0.047809
43.71 	0.037657 	239 	0.037657
43.75 	0.000000 	16 	0.000000