Folder: Bessy-II-KMC-II-insitu-sin2psi/Example_Data (part 68)

File: 25SC_s1_0027.003.dat
#F C:\frames\spec\25SC_s1_0027.003
#C title =s:27 frm:3 25SC_s1
#C wavelength =0.15406

#S 1  fr_average C:\frames\spec\25SC_s1_0027.003 C:\win32app\speccom\mask.axs chi 0 180 0 360 0.02
#C 2 theta =0.000000 to 180 deg
#C   q   =0.000000 to 81.568 nm^-1
#C  chi  =0.000000 to 360 deg
#C collumns:
#C  1 position (2theta or chi in degrees)
#C  2 average intensity (sum of all counts in the region divided with number of pixels)
#C  3 Number of pixels in region)
#C  4 error (sum of sqrt(intensity) for all pixels divided by number)
#N 4
#L TTh  Int  N_pix  Err
32.99 	0.081967 	61 	0.081967
33.03 	0.074047 	1391 	0.071521
33.07 	0.068293 	2050 	0.066864
33.11 	0.060876 	2579 	0.059513
33.15 	0.058353 	2999 	0.057181
33.19 	0.059844 	3342 	0.058968
33.23 	0.056770 	3523 	0.056604
33.27 	0.059504 	3630 	0.058697
33.31 	0.065574 	3660 	0.063493
33.35 	0.062534 	3694 	0.061424
33.39 	0.056315 	3729 	0.054876
33.43 	0.060622 	3761 	0.059999
33.47 	0.059242 	3798 	0.058008
33.51 	0.054784 	3815 	0.053709
33.55 	0.052043 	3843 	0.051738
33.59 	0.061082 	3880 	0.060177
33.63 	0.052820 	3919 	0.052521
33.67 	0.063480 	3954 	0.063036
33.71 	0.055094 	3975 	0.053915
33.75 	0.059515 	3999 	0.057904
33.79 	0.059639 	4041 	0.058769
33.83 	0.060988 	4050 	0.059807
33.87 	0.057893 	4111 	0.057015
33.91 	0.057604 	4149 	0.056475
33.95 	0.057881 	4181 	0.056900
33.99 	0.052143 	4200 	0.051027
34.03 	0.063148 	4244 	0.061906
34.07 	0.062559 	4268 	0.061186
34.11 	0.062994 	4302 	0.062585
34.15 	0.053798 	4331 	0.052581
34.19 	0.053187 	4362 	0.051978
34.23 	0.055998 	4393 	0.054931
34.27 	0.060832 	4422 	0.059640
34.31 	0.054284 	4458 	0.053627
34.35 	0.059768 	4484 	0.058984
34.39 	0.057086 	4502 	0.056305
34.43 	0.059484 	4539 	0.058065
34.47 	0.055314 	4592 	0.054038
34.51 	0.052540 	4606 	0.051777
34.55 	0.061598 	4643 	0.061093
34.59 	0.060749 	4675 	0.060623
34.63 	0.067516 	4710 	0.065899
34.67 	0.055684 	4741 	0.054449
34.71 	0.054763 	4766 	0.054025
34.75 	0.055324 	4808 	0.054837
34.79 	0.061774 	4824 	0.060317
34.83 	0.061086 	4862 	0.059520
34.87 	0.063887 	4868 	0.062563
34.91 	0.060631 	4882 	0.059791
34.95 	0.058691 	4890 	0.057853
34.99 	0.057995 	4897 	0.057397
35.03 	0.057657 	4943 	0.056946
35.07 	0.056478 	4940 	0.055529
35.11 	0.057409 	4947 	0.056224
35.15 	0.056512 	4937 	0.055681
35.19 	0.051396 	4942 	0.050804
35.23 	0.059656 	4945 	0.058590
35.27 	0.056589 	4948 	0.056115
35.31 	0.056761 	4933 	0.055811
35.35 	0.050384 	4942 	0.049555
35.39 	0.059252 	4945 	0.058541
35.43 	0.055950 	4933 	0.054643
35.47 	0.058812 	4931 	0.058079
35.51 	0.050345 	4926 	0.049156
35.55 	0.052578 	4945 	0.051986
35.59 	0.055410 	4945 	0.055291
35.63 	0.056039 	4943 	0.055209
35.67 	0.059692 	4942 	0.058507
35.71 	0.053069 	4937 	0.052238
35.75 	0.055364 	4931 	0.054651
35.79 	0.055758 	4932 	0.054808
35.83 	0.050344 	4946 	0.049633
35.87 	0.050579 	4923 	0.050222
35.91 	0.057236 	4927 	0.056641
35.95 	0.056742 	4917 	0.055293
35.99 	0.057906 	4939 	0.057076
36.03 	0.051183 	4943 	0.049880
36.07 	0.055882 	4939 	0.055407
36.11 	0.051329 	4929 	0.050002
36.15 	0.057502 	4939 	0.056553
36.19 	0.056275 	4940 	0.054971
36.23 	0.057143 	4935 	0.055956
36.27 	0.051980 	4925 	0.051623
36.31 	0.055601 	4928 	0.054769
36.35 	0.050923 	4929 	0.050329
36.39 	0.057305 	4921 	0.056829
36.43 	0.055398 	4928 	0.054566
36.47 	0.058549 	4936 	0.057837
36.51 	0.053720 	4933 	0.052532
36.55 	0.048711 	4927 	0.048117
36.59 	0.058514 	4939 	0.057684
36.63 	0.058000 	4931 	0.056456
36.67 	0.048073 	4930 	0.047835
36.71 	0.051209 	4921 	0.050733
36.75 	0.053196 	4944 	0.052722
36.79 	0.052428 	4921 	0.051595
36.83 	0.054323 	4915 	0.053489
36.87 	0.052589 	4944 	0.051641
36.91 	0.056466 	4941 	0.055636
36.95 	0.052098 	4933 	0.051386
36.99 	0.053495 	4935 	0.053139
37.03 	0.057067 	4924 	0.056711
37.07 	0.049848 	4935 	0.049492
37.11 	0.052077 	4935 	0.051602
37.15 	0.054186 	4909 	0.053232
37.19 	0.047107 	4925 	0.046155
37.23 	0.052257 	4918 	0.051304
37.27 	0.046588 	4894 	0.045989
37.31 	0.048632 	4935 	0.048157
37.35 	0.051033 	4938 	0.050440
37.39 	0.050497 	4931 	0.049665
37.43 	0.059408 	4932 	0.058577
37.47 	0.046257 	4929 	0.046019
37.51 	0.055139 	4933 	0.054308
37.55 	0.049087 	4930 	0.047879
37.59 	0.049644 	4915 	0.048929
37.63 	0.047571 	4919 	0.046618
37.67 	0.042618 	4904 	0.042140
37.71 	0.055995 	4929 	0.055520
37.75 	0.049595 	4940 	0.049121
37.79 	0.051927 	4930 	0.051076
37.83 	0.051829 	4920 	0.051472
37.87 	0.054060 	4939 	0.053348
37.91 	0.049290 	4930 	0.048577
37.95 	0.048364 	4921 	0.046936
37.99 	0.049878 	4912 	0.049043
38.03 	0.055205 	4909 	0.054369
38.07 	0.054186 	4909 	0.053351
38.11 	0.052685 	4935 	0.051973
38.15 	0.050224 	4918 	0.049370
38.19 	0.053550 	4930 	0.052124
38.23 	0.056096 	4938 	0.054771
38.27 	0.054361 	4930 	0.053054
38.31 	0.059062 	4927 	0.058111
38.35 	0.058442 	4928 	0.057372
38.39 	0.058464 	4909 	0.057390
38.43 	0.056957 	4916 	0.056004
38.47 	0.060933 	4907 	0.059978
38.51 	0.059205 	4932 	0.058849
38.55 	0.062601 	4936 	0.061177
38.59 	0.054630 	4924 	0.053679
38.63 	0.049756 	4924 	0.049043
38.67 	0.052866 	4937 	0.052372
38.71 	0.050975 	4924 	0.050737
38.75 	0.049320 	4927 	0.048488
38.79 	0.047223 	4934 	0.046155
38.83 	0.054279 	4919 	0.052969
38.87 	0.051313 	4911 	0.050717
38.91 	0.049358 	4903 	0.048521
38.95 	0.048394 	4918 	0.047898
38.99 	0.046992 	4937 	0.046636
39.03 	0.051885 	4934 	0.051054
39.07 	0.047522 	4924 	0.047046
39.11 	0.051714 	4931 	0.051357
39.15 	0.051475 	4915 	0.050760
39.19 	0.049827 	4917 	0.049351
39.23 	0.048528 	4925 	0.047914
39.27 	0.040326 	4910 	0.040087
39.31 	0.046888 	4884 	0.045928
39.35 	0.043364 	4935 	0.042889
39.39 	0.046054 	4929 	0.045103
39.43 	0.044800 	4933 	0.044088
39.47 	0.048751 	4923 	0.047660
39.51 	0.047522 	4924 	0.046690
39.55 	0.042082 	4919 	0.041367
39.59 	0.047638 	4912 	0.046923
39.63 	0.048354 	4922 	0.047502
39.67 	0.050071 	4913 	0.048879
39.71 	0.051481 	4895 	0.050883
39.75 	0.041396 	4928 	0.040921
39.79 	0.050751 	4926 	0.050157
39.83 	0.046413 	4934 	0.046056
39.87 	0.050761 	4925 	0.049810
39.91 	0.050386 	4922 	0.049434
39.95 	0.048627 	4915 	0.047912
39.99 	0.047648 	4932 	0.046698
40.03 	0.043019 	4928 	0.042663
40.07 	0.040626 	4923 	0.040269
40.11 	0.047803 	4916 	0.047088
40.15 	0.046204 	4913 	0.045707
40.19 	0.042808 	4929 	0.042332
40.23 	0.045215 	4932 	0.044859
40.27 	0.049828 	4937 	0.049472
40.31 	0.045151 	4939 	0.044914
40.35 	0.044521 	4919 	0.044283
40.39 	0.046035 	4931 	0.045323
40.43 	0.048964 	4922 	0.048488
40.47 	0.041887 	4918 	0.041291
40.51 	0.040837 	4922 	0.040361
40.55 	0.049918 	4908 	0.049083
40.59 	0.043751 	4937 	0.042921
40.63 	0.048073 	4930 	0.047241
40.67 	0.047242 	4932 	0.047005
40.71 	0.049067 	4932 	0.048592
40.75 	0.051916 	4931 	0.050966
40.79 	0.046913 	4924 	0.046675
40.83 	0.042208 	4928 	0.041495
40.87 	0.044034 	4928 	0.043559
40.91 	0.043266 	4923 	0.043028
40.95 	0.041522 	4913 	0.041522
40.99 	0.048335 	4924 	0.047978
41.03 	0.041998 	4905 	0.041162
41.07 	0.043205 	4930 	0.042354
41.11 	0.046403 	4935 	0.045928
41.15 	0.040478 	4941 	0.040003
41.19 	0.046856 	4930 	0.046024
41.23 	0.047580 	4939 	0.046987
41.27 	0.047455 	4931 	0.046980
41.31 	0.047030 	4933 	0.046555
41.35 	0.043337 	4938 	0.042863
41.39 	0.042976 	4933 	0.042382
41.43 	0.038953 	4929 	0.038597
41.47 	0.047300 	4926 	0.046230
41.51 	0.044332 	4940 	0.043976
41.55 	0.039919 	4935 	0.039682
41.59 	0.041962 	4933 	0.041725
41.63 	0.042527 	4938 	0.042409
41.67 	0.046559 	4940 	0.045966
41.71 	0.042562 	4934 	0.041849
41.75 	0.045242 	4929 	0.045124
41.79 	0.040453 	4944 	0.040216
41.83 	0.045455 	4928 	0.044741
41.87 	0.045390 	4935 	0.044559
41.91 	0.046596 	4936 	0.046240
41.95 	0.042993 	4931 	0.042399
41.99 	0.043833 	4905 	0.043236
42.03 	0.040494 	4939 	0.040257
42.07 	0.047397 	4937 	0.046409
42.11 	0.045096 	4945 	0.044978
42.15 	0.045565 	4938 	0.045090
42.19 	0.039324 	4908 	0.039085
42.23 	0.043949 	4892 	0.043710
42.27 	0.038572 	4874 	0.038332
42.31 	0.038929 	4855 	0.038688
42.35 	0.040306 	4838 	0.040064
42.39 	0.035803 	4804 	0.035316
42.43 	0.041110 	4792 	0.040254
42.47 	0.042183 	4765 	0.041814
42.51 	0.033945 	4743 	0.033574
42.55 	0.037171 	4708 	0.036798
42.59 	0.040389 	4729 	0.039502
42.63 	0.037588 	4709 	0.037214
42.67 	0.040564 	4684 	0.040564
42.71 	0.041819 	4663 	0.041316
42.75 	0.040502 	4617 	0.040122
42.79 	0.037320 	4582 	0.037064
42.83 	0.041667 	4536 	0.041408
42.87 	0.042454 	4499 	0.042193
42.91 	0.041966 	4456 	0.041440
42.95 	0.044611 	4416 	0.043947
42.99 	0.044014 	4385 	0.043212
43.03 	0.041311 	4333 	0.040207
43.07 	0.039804 	4296 	0.039532
43.11 	0.037603 	4255 	0.036914
43.15 	0.037565 	4206 	0.037426
43.19 	0.038150 	4194 	0.037731
43.23 	0.041887 	4154 	0.041041
43.27 	0.038002 	4105 	0.037860
43.31 	0.039225 	4079 	0.038938
43.35 	0.046875 	4032 	0.046439
43.39 	0.037731 	4002 	0.037585
43.43 	0.043687 	3960 	0.042947
43.47 	0.044376 	3921 	0.043306
43.51 	0.045138 	3877 	0.044231
43.55 	0.033401 	2964 	0.033203
43.59 	0.041237 	1746 	0.040566
43.63 	0.037962 	1001 	0.037962
43.67 	0.041833 	502 	0.041833
43.71 	0.041841 	239 	0.041841
43.75 	0.062500 	16 	0.062500

File: 25SC_s1_0027.004.dat
#F C:\frames\spec\25SC_s1_0027.004
#C title =s:27 frm:4 25SC_s1
#C wavelength =0.15406

#S 1  fr_average C:\frames\spec\25SC_s1_0027.004 C:\win32app\speccom\mask.axs chi 0 180 0 360 0.02
#C 2 theta =0.000000 to 180 deg
#C   q   =0.000000 to 81.568 nm^-1
#C  chi  =0.000000 to 360 deg
#C collumns:
#C  1 position (2theta or chi in degrees)
#C  2 average intensity (sum of all counts in the region divided with number of pixels)
#C  3 Number of pixels in region)
#C  4 error (sum of sqrt(intensity) for all pixels divided by number)
#N 4
#L TTh  Int  N_pix  Err
32.99 	0.098361 	61 	0.098361
33.03 	0.050324 	1391 	0.049481
33.07 	0.075610 	2050 	0.073895
33.11 	0.064366 	2579 	0.063912
33.15 	0.054351 	2999 	0.053765
33.19 	0.053860 	3342 	0.053159
33.23 	0.065001 	3523 	0.064669
33.27 	0.055372 	3630 	0.055211
33.31 	0.060109 	3660 	0.059149
33.35 	0.056037 	3694 	0.055403
33.39 	0.056047 	3729 	0.055576
33.43 	0.063015 	3761 	0.061925
33.47 	0.061085 	3798 	0.059542
33.51 	0.059502 	3815 	0.057813
33.55 	0.060630 	3843 	0.059410
33.59 	0.056701 	3880 	0.055795
33.63 	0.062516 	3919 	0.061146
33.67 	0.071067 	3954 	0.068549
33.71 	0.063145 	3975 	0.062089
33.75 	0.053013 	3999 	0.052427
33.79 	0.058896 	4041 	0.058316
33.83 	0.054321 	4050 	0.052585
33.87 	0.063488 	4111 	0.063061
33.91 	0.061220 	4149 	0.060231
33.95 	0.050945 	4181 	0.050104
33.99 	0.053571 	4200 	0.052316
34.03 	0.057729 	4244 	0.056762
34.07 	0.066542 	4268 	0.064620
34.11 	0.061599 	4302 	0.060646
34.15 	0.059340 	4331 	0.058122
34.19 	0.057313 	4362 	0.056776
34.23 	0.059413 	4393 	0.058746
34.27 	0.057214 	4422 	0.056684
34.31 	0.054060 	4458 	0.053929
34.35 	0.060660 	4484 	0.059202
34.39 	0.063749 	4502 	0.062947
34.43 	0.055739 	4539 	0.054707
34.47 	0.055314 	4592 	0.054421
34.51 	0.060139 	4606 	0.058867
34.55 	0.059875 	4643 	0.059244
34.59 	0.055187 	4675 	0.054059
34.63 	0.058811 	4710 	0.057920
34.67 	0.062012 	4741 	0.060530
34.71 	0.057281 	4766 	0.055765
34.75 	0.060524 	4808 	0.059306
34.79 	0.063433 	4824 	0.062704
34.83 	0.065200 	4862 	0.063392
34.87 	0.055670 	4868 	0.054226
34.91 	0.063089 	4882 	0.062609
34.95 	0.059509 	4890 	0.058172
34.99 	0.057995 	4897 	0.056898
35.03 	0.059478 	4943 	0.058411
35.07 	0.052834 	4940 	0.052123
35.11 	0.056398 	4947 	0.055451
35.15 	0.057525 	4937 	0.056200
35.19 	0.060502 	4942 	0.059178
35.23 	0.055814 	4945 	0.054866
35.27 	0.061641 	4948 	0.060931
35.31 	0.060004 	4933 	0.058460
35.35 	0.058883 	4942 	0.058271
35.39 	0.054398 	4945 	0.053451
35.43 	0.059396 	4933 	0.057733
35.47 	0.054958 	4931 	0.054246
35.51 	0.059480 	4926 	0.058767
35.55 	0.059454 	4945 	0.058625
35.59 	0.055814 	4945 	0.054985
35.63 	0.060490 	4943 	0.059779
35.67 	0.055645 	4942 	0.054460
35.71 	0.063804 	4937 	0.062973
35.75 	0.054553 	4931 	0.053721
35.79 	0.063666 	4932 	0.063310
35.83 	0.056611 	4946 	0.055901
35.87 	0.059313 	4923 	0.058005
35.91 	0.060686 	4927 	0.059616
35.95 	0.054912 	4917 	0.053720
35.99 	0.062361 	4939 	0.061867
36.03 	0.059073 	4943 	0.057888
36.07 	0.054869 	4939 	0.053921
36.11 	0.060661 	4929 	0.059592
36.15 	0.060741 	4939 	0.060385
36.19 	0.057287 	4940 	0.056339
36.23 	0.058561 	4935 	0.058086
36.27 	0.058680 	4925 	0.057947
36.31 	0.060877 	4928 	0.059074
36.35 	0.057212 	4929 	0.056499
36.39 	0.052225 	4921 	0.051273
36.43 	0.054789 	4928 	0.054076
36.47 	0.058347 	4936 	0.057259
36.51 	0.059193 	4933 	0.057986
36.55 	0.052365 	4927 	0.051037
36.59 	0.055072 	4939 	0.054479
36.63 	0.061854 	4931 	0.060527
36.67 	0.052535 	4930 	0.051466
36.71 	0.052835 	4921 	0.052240
36.75 	0.053196 	4944 	0.052603
36.79 	0.052428 	4921 	0.051476
36.83 	0.053306 	4915 	0.052710
36.87 	0.057241 	4944 	0.056649
36.91 	0.053633 	4941 	0.052566
36.95 	0.056963 	4933 	0.055420
36.99 	0.054711 	4935 	0.053999
37.03 	0.053412 	4924 	0.052460
37.07 	0.051672 	4935 	0.050821
37.11 	0.059169 	4935 	0.058576
37.15 	0.057853 	4909 	0.057137
37.19 	0.060305 	4925 	0.058739
37.23 	0.047580 	4918 	0.046747
37.27 	0.054557 	4894 	0.053579
37.31 	0.053901 	4935 	0.053307
37.35 	0.059741 	4938 	0.058555
37.39 	0.056581 	4931 	0.055630
37.43 	0.050892 	4932 	0.050298
37.47 	0.059241 	4929 	0.057934
37.51 	0.053923 	4933 	0.053329
37.55 	0.054767 	4930 	0.054410
37.59 	0.053103 	4915 	0.052507
37.63 	0.058548 	4919 	0.057834
37.67 	0.053426 	4904 	0.052231
37.71 	0.054169 	4929 	0.053337
37.75 	0.056883 	4940 	0.055697
37.79 	0.052941 	4930 	0.051753
37.83 	0.052033 	4920 	0.050822
37.87 	0.056084 	4939 	0.054879
37.91 	0.058824 	4930 	0.057121
37.95 	0.053038 	4921 	0.052443
37.99 	0.044788 	4912 	0.043695
38.03 	0.054390 	4909 	0.053077
38.07 	0.053779 	4909 	0.053063
38.11 	0.051064 	4935 	0.050589
38.15 	0.057137 	4918 	0.055530
38.19 	0.064300 	4930 	0.063112
38.23 	0.062576 	4938 	0.061508
38.27 	0.062272 	4930 	0.061084
38.31 	0.065557 	4927 	0.064487
38.35 	0.057833 	4928 	0.057238
38.39 	0.065798 	4909 	0.064485
38.43 	0.062449 	4916 	0.061258
38.47 	0.070512 	4907 	0.069198
38.51 	0.058597 	4932 	0.057053
38.55 	0.061183 	4936 	0.059403
38.59 	0.063566 	4924 	0.062020
38.63 	0.058083 	4924 	0.057488
38.67 	0.058740 	4937 	0.057198
38.71 	0.053615 	4924 	0.052782
38.75 	0.056627 	4927 	0.056032
38.79 	0.057154 	4934 	0.056086
38.83 	0.053669 	4919 	0.053193
38.87 	0.056608 	4911 	0.055514
38.91 	0.053641 	4903 	0.052287
38.95 	0.048597 	4918 	0.047763
38.99 	0.054284 	4937 	0.053216
39.03 	0.049453 	4934 	0.049215
39.07 	0.053818 	4924 	0.052985
39.11 	0.049888 	4931 	0.049057
39.15 	0.054120 	4915 	0.052690
39.19 	0.054301 	4917 	0.053210
39.23 	0.052183 	4925 	0.051112
39.27 	0.051527 	4910 	0.050692
39.31 	0.057125 	4884 	0.055446
39.35 	0.051469 	4935 	0.050638
39.39 	0.054778 	4929 	0.054540
39.43 	0.052098 	4933 	0.051386
39.47 	0.058298 	4923 	0.057465
39.51 	0.057677 	4924 	0.056844
39.55 	0.053873 	4919 	0.053039
39.59 	0.052117 	4912 	0.051759
39.63 	0.053637 	4922 	0.052804
39.67 	0.053531 	4913 	0.052458
39.71 	0.054750 	4895 	0.053912
39.75 	0.057021 	4928 	0.055783
39.79 	0.050751 	4926 	0.049443
39.83 	0.059384 	4934 	0.058790
39.87 	0.052589 	4925 	0.051994
39.91 	0.059529 	4922 	0.058219
39.95 	0.058393 	4915 	0.057558
39.99 	0.051703 	4932 	0.050991
40.03 	0.050325 	4928 	0.049374
40.07 	0.055048 	4923 	0.053739
40.11 	0.042921 	4916 	0.042325
40.15 	0.053735 	4913 	0.052662
40.19 	0.045445 	4929 	0.044613
40.23 	0.056975 	4932 	0.055550
40.27 	0.054487 	4937 	0.053775
40.31 	0.049605 	4939 	0.048894
40.35 	0.048790 	4919 	0.047719
40.39 	0.051511 	4931 	0.050917
40.43 	0.048557 	4922 	0.047843
40.47 	0.050630 	4918 	0.050035
40.51 	0.046729 	4922 	0.045896
40.55 	0.048289 	4908 	0.047930
40.59 	0.049423 	4937 	0.048711
40.63 	0.048884 	4930 	0.047815
40.67 	0.050284 	4932 	0.050046
40.71 	0.050892 	4932 	0.050180
40.75 	0.046238 	4931 	0.045763
40.79 	0.051584 	4924 	0.050970
40.83 	0.059050 	4928 	0.057961
40.87 	0.050528 	4928 	0.050171
40.91 	0.057282 	4923 	0.056687
40.95 	0.051903 	4913 	0.051426
40.99 	0.052600 	4924 	0.051886
41.03 	0.051376 	4905 	0.051137
41.07 	0.051318 	4930 	0.050962
41.11 	0.045390 	4935 	0.044915
41.15 	0.047359 	4941 	0.047003
41.19 	0.054361 	4930 	0.053292
41.23 	0.050213 	4939 	0.049382
41.27 	0.053336 	4931 	0.052623
41.31 	0.051490 	4933 	0.051015
41.35 	0.045768 	4938 	0.045056
41.39 	0.049260 	4933 	0.049141
41.43 	0.050923 	4929 	0.050091
41.47 	0.047097 	4926 	0.046483
41.51 	0.050000 	4940 	0.048933
41.55 	0.042756 	4935 	0.042281
41.59 	0.049666 	4933 	0.048716
41.63 	0.049210 	4938 	0.048736
41.67 	0.051215 	4940 	0.050622
41.71 	0.051074 	4934 	0.050718
41.75 	0.051532 	4929 	0.050462
41.79 	0.047532 	4944 	0.047039
41.83 	0.049716 	4928 	0.048646
41.87 	0.042553 	4935 	0.041604
41.91 	0.056118 	4936 	0.054299
41.95 	0.049077 	4931 	0.048127
41.99 	0.049949 	4905 	0.049352
42.03 	0.049808 	4939 	0.049096
42.07 	0.051246 	4937 	0.050652
42.11 	0.046916 	4945 	0.045968
42.15 	0.041717 	4938 	0.041243
42.19 	0.053993 	4908 	0.052800
42.23 	0.053148 	4892 	0.052669
42.27 	0.052318 	4874 	0.052078
42.31 	0.047580 	4855 	0.046615
42.35 	0.049401 	4838 	0.049279
42.39 	0.049958 	4804 	0.049593
42.43 	0.050501 	4792 	0.050134
42.47 	0.048269 	4765 	0.047408
42.51 	0.043643 	4743 	0.043273
42.55 	0.049703 	4708 	0.048832
42.59 	0.039966 	4729 	0.039718
42.63 	0.044383 	4709 	0.043264
42.67 	0.043126 	4684 	0.042500
42.71 	0.039460 	4663 	0.038957
42.75 	0.049383 	4617 	0.048621
42.79 	0.039284 	4582 	0.038773
42.83 	0.044974 	4536 	0.044457
42.87 	0.038008 	4499 	0.037748
42.91 	0.052065 	4456 	0.051276
42.95 	0.047101 	4416 	0.046703
42.99 	0.043101 	4385 	0.042834
43.03 	0.049388 	4333 	0.048983
43.07 	0.047253 	4296 	0.046708
43.11 	0.041833 	4255 	0.041282
43.15 	0.049453 	4206 	0.048757
43.19 	0.046495 	4194 	0.045797
43.23 	0.049109 	4154 	0.048827
43.27 	0.050183 	4105 	0.049755
43.31 	0.044128 	4079 	0.043410
43.35 	0.043651 	4032 	0.043070
43.39 	0.041729 	4002 	0.041436
43.43 	0.046212 	3960 	0.045620
43.47 	0.043611 	3921 	0.043014
43.51 	0.047459 	3877 	0.046704
43.55 	0.047571 	2964 	0.046550
43.59 	0.048110 	1746 	0.047103
43.63 	0.044955 	1001 	0.044370
43.67 	0.045817 	502 	0.044650
43.71 	0.029289 	239 	0.029289
43.75 	0.000000 	16 	0.000000