Folder: Bessy-II-KMC-II-insitu-sin2psi/Example_Data (part 130)

File: 25SC_s1_0052.002.dat
#F C:\frames\spec\25SC_s1_0052.002
#C title =s:52 frm:2 25SC_s1
#C wavelength =0.15406

#S 1  fr_average C:\frames\spec\25SC_s1_0052.002 C:\win32app\speccom\mask.axs chi 0 180 0 360 0.02
#C 2 theta =0.000000 to 180 deg
#C   q   =0.000000 to 81.568 nm^-1
#C  chi  =0.000000 to 360 deg
#C collumns:
#C  1 position (2theta or chi in degrees)
#C  2 average intensity (sum of all counts in the region divided with number of pixels)
#C  3 Number of pixels in region)
#C  4 error (sum of sqrt(intensity) for all pixels divided by number)
#N 4
#L TTh  Int  N_pix  Err
32.99 	0.032787 	61 	0.032787
33.03 	0.066858 	1391 	0.065174
33.07 	0.065854 	2050 	0.064996
33.11 	0.072509 	2579 	0.071146
33.15 	0.069690 	2999 	0.068127
33.19 	0.072711 	3342 	0.072185
33.23 	0.062447 	3523 	0.061449
33.27 	0.071901 	3630 	0.070287
33.31 	0.063661 	3660 	0.062061
33.35 	0.076611 	3694 	0.075184
33.39 	0.066238 	3729 	0.065295
33.43 	0.064876 	3761 	0.064098
33.47 	0.068720 	3798 	0.067641
33.51 	0.077326 	3815 	0.074998
33.55 	0.069477 	3843 	0.067750
33.59 	0.063402 	3880 	0.061741
33.63 	0.070426 	3919 	0.069230
33.67 	0.067021 	3954 	0.065687
33.71 	0.067421 	3975 	0.066832
33.75 	0.072018 	3999 	0.070969
33.79 	0.058896 	4041 	0.057592
33.83 	0.066914 	4050 	0.065323
33.87 	0.063975 	4111 	0.063405
33.91 	0.059773 	4149 	0.059209
33.95 	0.067209 	4181 	0.066368
33.99 	0.067619 	4200 	0.066085
34.03 	0.066211 	4244 	0.065222
34.07 	0.064433 	4268 	0.063609
34.11 	0.070432 	4302 	0.067959
34.15 	0.068114 	4331 	0.066491
34.19 	0.066942 	4362 	0.065330
34.23 	0.065786 	4393 	0.064720
34.27 	0.067164 	4422 	0.065177
34.31 	0.071332 	4458 	0.070150
34.35 	0.060883 	4484 	0.059425
34.39 	0.057530 	4502 	0.056728
34.43 	0.069619 	4539 	0.068586
34.47 	0.066202 	4592 	0.065437
34.51 	0.061876 	4606 	0.061240
34.55 	0.060952 	4643 	0.060195
34.59 	0.067166 	4675 	0.065286
34.63 	0.058174 	4710 	0.056682
34.67 	0.061590 	4741 	0.059840
34.71 	0.065254 	4766 	0.064516
34.75 	0.060108 	4808 	0.059255
34.79 	0.063847 	4824 	0.062997
34.83 	0.067256 	4862 	0.065449
34.87 	0.062038 	4868 	0.061316
34.91 	0.068005 	4882 	0.066565
34.95 	0.061963 	4890 	0.061005
34.99 	0.065755 	4897 	0.064319
35.03 	0.077079 	4943 	0.075657
35.07 	0.058097 	4940 	0.057030
35.11 	0.064484 	4947 	0.063299
35.15 	0.067450 	4937 	0.066026
35.19 	0.058276 	4942 	0.057683
35.23 	0.064105 	4945 	0.062565
35.27 	0.067098 	4948 	0.065677
35.31 	0.063856 	4933 	0.062549
35.35 	0.062728 	4942 	0.062016
35.39 	0.064307 	4945 	0.063597
35.43 	0.065680 	4933 	0.064611
35.47 	0.070168 	4931 	0.068505
35.51 	0.066382 	4926 	0.064817
35.55 	0.065925 	4945 	0.064148
35.59 	0.055612 	4945 	0.054546
35.63 	0.068784 	4943 	0.067362
35.67 	0.066370 	4942 	0.065422
35.71 	0.067045 	4937 	0.065621
35.75 	0.071791 	4931 	0.069870
35.79 	0.066910 	4932 	0.065485
35.83 	0.066518 	4946 	0.065097
35.87 	0.066829 	4923 	0.065520
35.91 	0.062310 	4927 	0.061359
35.95 	0.068741 	4917 	0.067788
35.99 	0.063171 	4939 	0.062815
36.03 	0.070403 	4943 	0.068980
36.07 	0.069042 	4939 	0.068212
36.11 	0.065531 	4929 	0.063629
36.15 	0.067827 	4939 	0.066997
36.19 	0.068219 	4940 	0.066914
36.23 	0.068085 	4935 	0.067254
36.27 	0.067614 	4925 	0.066544
36.31 	0.071834 	4928 	0.069933
36.35 	0.063705 	4929 	0.062041
36.39 	0.068076 	4921 	0.066528
36.43 	0.064935 	4928 	0.063628
36.47 	0.067666 	4936 	0.066479
36.51 	0.064667 	4933 	0.063479
36.55 	0.062310 	4927 	0.061477
36.59 	0.064386 	4939 	0.063318
36.63 	0.063476 	4931 	0.062169
36.67 	0.070791 	4930 	0.069959
36.71 	0.067060 	4921 	0.066226
36.75 	0.070591 	4944 	0.069880
36.79 	0.068279 	4921 	0.067327
36.83 	0.067955 	4915 	0.066883
36.87 	0.064523 	4944 	0.063575
36.91 	0.067598 	4941 	0.066748
36.95 	0.064464 	4933 	0.062683
36.99 	0.064843 	4935 	0.064131
37.03 	0.070065 	4924 	0.068499
37.07 	0.068693 	4935 	0.066675
37.11 	0.068896 	4935 	0.067115
37.15 	0.064372 	4909 	0.063417
37.19 	0.062132 	4925 	0.061299
37.23 	0.063847 	4918 	0.062021
37.27 	0.063343 	4894 	0.062266
37.31 	0.066059 	4935 	0.064753
37.35 	0.064601 	4938 	0.063771
37.39 	0.062868 	4931 	0.061898
37.43 	0.064477 	4932 	0.063170
37.47 	0.058227 	4929 	0.057038
37.51 	0.060612 	4933 	0.059781
37.55 	0.057809 	4930 	0.057196
37.59 	0.070600 	4915 	0.069508
37.63 	0.062614 	4919 	0.061781
37.67 	0.061786 	4904 	0.060114
37.71 	0.060053 	4929 	0.058864
37.75 	0.063765 	4940 	0.062817
37.79 	0.065314 	4930 	0.064126
37.83 	0.066260 	4920 	0.064712
37.87 	0.063171 	4939 	0.061273
37.91 	0.063692 	4930 	0.062860
37.95 	0.064621 	4921 	0.063193
37.99 	0.063722 	4912 	0.062271
38.03 	0.072112 	4909 	0.071038
38.07 	0.056020 	4909 	0.055304
38.11 	0.059574 	4935 	0.058487
38.15 	0.065474 	4918 	0.063925
38.19 	0.069777 	4930 	0.068826
38.23 	0.074727 	4938 	0.073778
38.27 	0.080933 	4930 	0.078794
38.31 	0.078141 	4927 	0.076219
38.35 	0.083604 	4928 	0.082059
38.39 	0.084742 	4909 	0.082594
38.43 	0.095403 	4916 	0.092543
38.47 	0.090687 	4907 	0.087921
38.51 	0.089213 	4932 	0.087075
38.55 	0.085494 	4936 	0.083596
38.59 	0.079813 	4924 	0.077910
38.63 	0.081844 	4924 	0.079683
38.67 	0.066842 	4937 	0.065893
38.71 	0.074736 	4924 	0.072714
38.75 	0.063122 	4927 	0.061794
38.79 	0.055736 	4934 	0.054311
38.83 	0.060581 	4919 	0.059271
38.87 	0.062513 	4911 	0.061916
38.91 	0.051193 	4903 	0.050476
38.95 	0.053884 	4918 	0.052812
38.99 	0.055904 	4937 	0.054955
39.03 	0.050061 	4934 	0.049705
39.07 	0.054224 	4924 	0.053154
39.11 	0.057798 	4931 	0.056610
39.15 	0.053510 	4915 	0.052517
39.19 	0.052268 	4917 	0.051910
39.23 	0.048934 	4925 	0.047982
39.27 	0.049898 	4910 	0.049302
39.31 	0.047502 	4884 	0.046543
39.35 	0.054306 	4935 	0.053831
39.39 	0.046460 	4929 	0.045984
39.43 	0.055544 	4933 	0.054119
39.47 	0.046923 	4923 	0.046209
39.51 	0.057474 	4924 	0.056760
39.55 	0.050823 	4919 	0.049990
39.59 	0.042345 	4912 	0.042107
39.63 	0.058919 	4922 	0.058205
39.67 	0.053735 	4913 	0.053020
39.71 	0.049847 	4895 	0.049368
39.75 	0.053774 	4928 	0.053299
39.79 	0.052375 	4926 	0.051781
39.83 	0.048845 	4934 	0.048607
39.87 	0.051371 	4925 	0.051133
39.91 	0.054856 	4922 	0.053666
39.95 	0.049644 	4915 	0.048571
39.99 	0.054339 	4932 	0.053389
40.03 	0.054789 	4928 	0.054195
40.07 	0.043673 	4923 	0.043078
40.11 	0.047600 	4916 	0.046646
40.15 	0.053735 	4913 	0.053020
40.19 	0.054575 	4929 	0.053624
40.23 	0.048459 	4932 	0.047746
40.27 	0.052056 	4937 	0.051206
40.31 	0.047176 	4939 	0.046701
40.35 	0.048994 	4919 	0.048636
40.39 	0.050497 	4931 	0.049665
40.43 	0.049573 	4922 	0.049097
40.47 	0.043107 	4918 	0.042273
40.51 	0.045104 	4922 	0.044628
40.55 	0.051752 	4908 	0.050678
40.59 	0.051651 	4937 	0.051413
40.63 	0.045842 	4930 	0.045485
40.67 	0.047851 	4932 	0.046901
40.71 	0.043593 	4932 	0.043474
40.75 	0.045427 	4931 	0.045308
40.79 	0.053615 	4924 	0.052901
40.83 	0.051948 	4928 	0.051235
40.87 	0.051136 	4928 	0.050067
40.91 	0.046516 	4923 	0.045426
40.95 	0.050885 	4913 	0.050051
40.99 	0.038587 	4924 	0.037754
41.03 	0.046483 	4905 	0.045747
41.07 	0.051724 	4930 	0.051011
41.11 	0.045998 	4935 	0.045642
41.15 	0.048978 	4941 	0.048622
41.19 	0.049493 	4930 	0.048780
41.23 	0.046771 	4939 	0.045940
41.27 	0.048874 	4931 	0.047924
41.31 	0.054328 	4933 	0.053141
41.35 	0.044147 	4938 	0.043317
41.39 	0.046827 	4933 	0.046471
41.43 	0.045040 	4929 	0.044564
41.47 	0.044458 	4926 	0.044220
41.51 	0.050000 	4940 	0.048933
41.55 	0.045187 	4935 	0.044238
41.59 	0.046422 	4933 	0.045571
41.63 	0.046375 	4938 	0.045901
41.67 	0.048178 	4940 	0.047348
41.71 	0.046210 	4934 	0.045241
41.75 	0.043619 	4929 	0.043263
41.79 	0.041464 	4944 	0.040872
41.83 	0.048904 	4928 	0.048310
41.87 	0.048835 	4935 	0.047767
41.91 	0.044976 	4936 	0.044738
41.95 	0.050700 	4931 	0.049492
41.99 	0.048930 	4905 	0.047616
42.03 	0.042519 	4939 	0.041807
42.07 	0.045169 	4937 	0.044457
42.11 	0.045905 	4945 	0.045194
42.15 	0.045160 	4938 	0.044685
42.19 	0.042176 	4908 	0.041579
42.23 	0.044971 	4892 	0.044373
42.27 	0.044932 	4874 	0.044692
42.31 	0.038517 	4855 	0.037793
42.35 	0.043613 	4838 	0.043129
42.39 	0.044963 	4804 	0.044353
42.43 	0.043614 	4792 	0.042759
42.47 	0.042183 	4765 	0.041937
42.51 	0.038583 	4743 	0.037945
42.55 	0.043543 	4708 	0.042776
42.59 	0.041869 	4729 	0.041002
42.63 	0.043534 	4709 	0.042767
42.67 	0.048676 	4684 	0.047801
42.71 	0.039888 	4663 	0.039763
42.75 	0.045051 	4617 	0.044543
42.79 	0.043867 	4582 	0.043739
42.83 	0.044312 	4536 	0.043666
42.87 	0.044010 	4499 	0.043619
42.91 	0.038600 	4456 	0.038337
42.95 	0.041440 	4416 	0.041308
42.99 	0.042645 	4385 	0.042245
43.03 	0.043619 	4333 	0.043078
43.07 	0.046788 	4296 	0.046379
43.11 	0.046298 	4255 	0.045748
43.15 	0.039230 	4206 	0.039090
43.19 	0.048402 	4194 	0.047704
43.23 	0.046461 	4154 	0.046038
43.27 	0.041657 	4105 	0.041228
43.31 	0.041677 	4079 	0.041102
43.35 	0.044643 	4032 	0.043771
43.39 	0.042979 	4002 	0.042100
43.43 	0.041919 	3960 	0.041155
43.47 	0.039021 	3921 	0.038871
43.51 	0.042301 	3877 	0.041696
43.55 	0.046896 	2964 	0.046106
43.59 	0.040092 	1746 	0.039421
43.63 	0.033966 	1001 	0.033966
43.67 	0.053785 	502 	0.053785
43.71 	0.079498 	239 	0.077047
43.75 	0.000000 	16 	0.000000

File: 25SC_s1_0052.003.dat
#F C:\frames\spec\25SC_s1_0052.003
#C title =s:52 frm:3 25SC_s1
#C wavelength =0.15406

#S 1  fr_average C:\frames\spec\25SC_s1_0052.003 C:\win32app\speccom\mask.axs chi 0 180 0 360 0.02
#C 2 theta =0.000000 to 180 deg
#C   q   =0.000000 to 81.568 nm^-1
#C  chi  =0.000000 to 360 deg
#C collumns:
#C  1 position (2theta or chi in degrees)
#C  2 average intensity (sum of all counts in the region divided with number of pixels)
#C  3 Number of pixels in region)
#C  4 error (sum of sqrt(intensity) for all pixels divided by number)
#N 4
#L TTh  Int  N_pix  Err
32.99 	0.049180 	61 	0.049180
33.03 	0.056794 	1391 	0.056373
33.07 	0.070732 	2050 	0.067780
33.11 	0.072896 	2579 	0.071307
33.15 	0.063688 	2999 	0.063297
33.19 	0.070916 	3342 	0.069689
33.23 	0.067840 	3523 	0.065318
33.27 	0.063085 	3630 	0.062117
33.31 	0.067213 	3660 	0.065293
33.35 	0.065512 	3694 	0.064560
33.39 	0.067042 	3729 	0.065785
33.43 	0.063813 	3761 	0.062723
33.47 	0.073723 	3798 	0.072489
33.51 	0.070511 	3815 	0.069436
33.55 	0.071038 	3843 	0.069311
33.59 	0.074742 	3880 	0.072780
33.63 	0.070681 	3919 	0.069486
33.67 	0.068285 	3954 	0.067396
33.71 	0.073711 	3975 	0.071304
33.75 	0.068267 	3999 	0.066509
33.79 	0.077951 	4041 	0.075487
33.83 	0.072346 	4050 	0.071044
33.87 	0.063731 	4111 	0.062877
33.91 	0.059773 	4149 	0.058362
33.95 	0.059316 	4181 	0.058195
33.99 	0.068571 	4200 	0.066758
34.03 	0.068332 	4244 	0.067228
34.07 	0.078725 	4268 	0.077490
34.11 	0.066713 	4302 	0.065079
34.15 	0.062572 	4331 	0.061355
34.19 	0.070381 	4362 	0.069038
34.23 	0.063510 	4393 	0.062443
34.27 	0.068747 	4422 	0.067687
34.31 	0.068416 	4458 	0.067234
34.35 	0.070027 	4484 	0.069112
34.39 	0.061972 	4502 	0.060541
34.43 	0.061027 	4539 	0.059994
34.47 	0.063589 	4592 	0.061803
34.51 	0.064047 	4606 	0.063157
34.55 	0.063106 	4643 	0.061592
34.59 	0.070160 	4675 	0.068907
34.63 	0.062420 	4710 	0.061052
34.67 	0.071715 	4741 	0.069965
34.71 	0.066513 	4766 	0.064157
34.75 	0.068428 	4808 	0.066600
34.79 	0.063640 	4824 	0.062649
34.83 	0.064582 	4862 	0.063619
34.87 	0.065941 	4868 	0.064236
34.91 	0.062270 	4882 	0.061410
34.95 	0.062781 	4890 	0.061583
34.99 	0.066571 	4897 	0.065495
35.03 	0.065345 	4943 	0.064278
35.07 	0.071255 	4940 	0.069575
35.11 	0.064281 	4947 	0.063452
35.15 	0.062994 	4937 	0.061669
35.19 	0.065358 	4942 	0.063936
35.23 	0.068554 	4945 	0.066540
35.27 	0.062449 	4948 	0.061502
35.31 	0.070951 	4933 	0.069744
35.35 	0.058478 	4942 	0.057412
35.39 	0.063094 	4945 	0.061416
35.43 	0.071762 	4933 	0.070436
35.47 	0.073819 	4931 	0.072631
35.51 	0.062728 	4926 	0.061896
35.55 	0.068756 	4945 	0.068282
35.59 	0.058443 	4945 	0.057495
35.63 	0.060287 	4943 	0.058984
35.67 	0.061109 	4942 	0.060279
35.71 	0.066235 	4937 	0.065048
35.75 	0.068343 	4931 	0.066799
35.79 	0.060219 	4932 	0.059150
35.83 	0.064092 	4946 	0.062553
35.87 	0.067235 	4923 	0.066046
35.91 	0.072255 	4927 	0.070333
35.95 	0.070571 	4917 	0.069142
35.99 	0.072484 	4939 	0.070824
36.03 	0.065952 	4943 	0.064530
36.07 	0.069042 	4939 	0.067738
36.11 	0.073240 	4929 	0.072052
36.15 	0.061146 	4939 	0.060197
36.19 	0.068219 	4940 	0.067151
36.23 	0.070719 	4935 	0.070126
36.27 	0.066193 	4925 	0.065241
36.31 	0.058442 	4928 	0.057847
36.35 	0.065733 	4929 	0.064783
36.39 	0.063605 	4921 	0.062177
36.43 	0.068182 	4928 	0.067350
36.47 	0.067261 	4936 	0.066430
36.51 	0.059599 	4933 	0.058649
36.55 	0.063325 	4927 	0.062730
36.59 	0.068435 	4939 	0.066774
36.63 	0.068343 	4931 	0.066542
36.67 	0.066329 	4930 	0.064764
36.71 	0.067669 	4921 	0.066697
36.75 	0.064927 	4944 	0.063861
36.79 	0.061370 	4921 	0.060279
36.83 	0.069379 	4915 	0.068188
36.87 	0.068972 	4944 	0.067669
36.91 	0.074681 	4941 	0.073140
36.95 	0.070748 	4933 	0.069541
36.99 	0.070719 	4935 	0.069058
37.03 	0.062551 	4924 	0.061956
37.07 	0.064032 	4935 	0.062133
37.11 	0.064235 	4935 	0.063167
37.15 	0.062334 	4909 	0.061141
37.19 	0.065584 	4925 	0.064275
37.23 	0.071777 	4918 	0.070586
37.27 	0.069473 	4894 	0.068755
37.31 	0.068693 	4935 	0.067506
37.35 	0.063386 	4938 	0.062299
37.39 	0.061651 	4931 	0.060700
37.43 	0.062044 	4932 	0.061094
37.47 	0.063502 	4929 	0.062551
37.51 	0.067302 	4933 	0.065877
37.55 	0.061866 	4930 	0.060421
37.59 	0.061648 	4915 	0.060198
37.63 	0.064851 	4919 	0.064136
37.67 	0.067496 	4904 	0.066162
37.71 	0.059850 	4929 	0.059493
37.75 	0.064777 	4940 	0.063829
37.79 	0.065112 	4930 	0.064399
37.83 	0.061382 	4920 	0.059953
37.87 	0.054060 	4939 	0.052992
37.91 	0.059432 	4930 	0.058481
37.95 	0.063199 	4921 	0.062722
37.99 	0.061686 	4912 	0.060493
38.03 	0.060909 	4909 	0.059357
38.07 	0.060094 	4909 	0.058542
38.11 	0.069504 	4935 	0.068198
38.15 	0.067507 	4918 	0.065482
38.19 	0.065112 	4930 	0.063567
38.23 	0.067639 	4938 	0.066690
38.27 	0.071400 	4930 	0.070568
38.31 	0.072458 	4927 	0.071012
38.35 	0.078328 	4928 	0.076525
38.39 	0.078427 	4909 	0.075902
38.43 	0.081164 	4916 	0.079138
38.47 	0.082739 	4907 	0.080690
38.51 	0.083739 	4932 	0.081838
38.55 	0.078809 	4936 	0.077741
38.59 	0.071487 	4924 	0.070297
38.63 	0.070268 	4924 	0.069078
38.67 	0.064412 	4937 	0.063106
38.71 	0.063769 	4924 	0.062441
38.75 	0.057236 	4927 	0.056403
38.79 	0.066680 	4934 	0.064781
38.83 	0.061801 	4919 	0.061206
38.87 	0.063124 	4911 	0.061911
38.91 	0.059555 	4903 	0.058480
38.95 	0.052054 	4918 	0.050743
38.99 	0.056512 	4937 	0.055800
39.03 	0.055736 	4934 	0.055380
39.07 	0.055037 	4924 	0.054204
39.11 	0.051308 	4931 	0.050833
39.15 	0.048830 	4915 	0.047877
39.19 	0.051454 	4917 	0.050382
39.23 	0.051371 	4925 	0.050399
39.27 	0.054582 	4910 	0.053509
39.31 	0.054668 	4884 	0.053829
39.35 	0.046403 	4935 	0.045691
39.39 	0.056198 	4929 	0.055604
39.43 	0.048247 	4933 	0.046921
39.47 	0.053829 	4923 	0.052996
39.51 	0.054427 	4924 	0.053476
39.55 	0.056312 	4919 	0.055955
39.59 	0.057614 	4912 	0.056898
39.63 	0.045104 	4922 	0.044390
39.67 	0.050071 	4913 	0.049714
39.71 	0.051685 	4895 	0.050828
39.75 	0.052760 	4928 	0.052047
39.79 	0.051157 	4926 	0.050444
39.83 	0.051277 	4934 	0.050327
39.87 	0.047310 	4925 	0.046477
39.91 	0.048557 	4922 	0.047962
39.95 	0.040285 	4915 	0.039927
39.99 	0.047242 	4932 	0.046886
40.03 	0.050731 	4928 	0.049879
40.07 	0.052001 	4923 	0.051525
40.11 	0.047193 	4916 	0.046716
40.15 	0.056788 	4913 	0.056073
40.19 	0.048286 	4929 	0.047216
40.23 	0.045823 	4932 	0.044754
40.27 	0.043954 	4937 	0.043242
40.31 	0.051225 	4939 	0.050513
40.35 	0.044928 	4919 	0.044451
40.39 	0.045021 	4931 	0.044309
40.43 	0.053840 	4922 	0.052412
40.47 	0.046157 	4918 	0.045800
40.51 	0.046729 	4922 	0.046253
40.55 	0.046659 	4908 	0.046062
40.59 	0.043751 	4937 	0.043395
40.63 	0.054361 	4930 	0.054005
40.67 	0.050284 	4932 	0.049571
40.71 	0.050689 	4932 	0.050214
40.75 	0.053742 	4931 	0.053029
40.79 	0.047929 	4924 	0.047215
40.83 	0.047078 	4928 	0.046602
40.87 	0.048498 	4928 	0.047904
40.91 	0.050782 	4923 	0.050425
40.95 	0.044983 	4913 	0.044387
40.99 	0.048741 	4924 	0.048384
41.03 	0.051172 	4905 	0.050695
41.07 	0.056795 	4930 	0.055726
41.11 	0.044174 	4935 	0.043443
41.15 	0.049787 	4941 	0.049313
41.19 	0.052130 	4930 	0.051417
41.23 	0.050213 	4939 	0.049145
41.27 	0.050497 	4931 	0.049903
41.31 	0.046827 	4933 	0.045996
41.35 	0.053260 	4938 	0.052667
41.39 	0.048652 	4933 	0.047939
41.43 	0.043619 	4929 	0.043382
41.47 	0.049330 	4926 	0.048260
41.51 	0.050000 	4940 	0.049032
41.55 	0.046201 	4935 	0.045488
41.59 	0.045408 	4933 	0.044933
41.63 	0.046173 	4938 	0.045698
41.67 	0.048178 	4940 	0.047704
41.71 	0.051277 	4934 	0.050802
41.75 	0.050720 	4929 	0.050007
41.79 	0.046723 	4944 	0.045538
41.83 	0.044237 	4928 	0.043999
41.87 	0.041135 	4935 	0.040660
41.91 	0.051661 	4936 	0.050949
41.95 	0.047252 	4931 	0.046421
41.99 	0.039755 	4905 	0.039139
42.03 	0.042519 	4939 	0.042282
42.07 	0.042941 	4937 	0.042348
42.11 	0.045298 	4945 	0.044232
42.15 	0.046375 	4938 	0.045426
42.19 	0.050530 	4908 	0.050172
42.23 	0.043336 	4892 	0.042857
42.27 	0.042675 	4874 	0.042555
42.31 	0.047374 	4855 	0.046389
42.35 	0.044026 	4838 	0.043663
42.39 	0.042256 	4804 	0.041891
42.43 	0.043614 	4792 	0.043125
42.47 	0.046380 	4765 	0.045519
42.51 	0.045962 	4743 	0.045098
42.55 	0.044180 	4708 	0.043682
42.59 	0.046733 	4729 	0.045990
42.63 	0.041410 	4709 	0.041016
42.67 	0.044406 	4684 	0.044156
42.71 	0.045893 	4663 	0.045014
42.75 	0.045267 	4617 	0.045141
42.79 	0.042558 	4582 	0.042302
42.83 	0.045855 	4536 	0.045318
42.87 	0.041565 	4499 	0.040914
42.91 	0.037478 	4456 	0.037083
42.95 	0.044837 	4416 	0.044439
42.99 	0.045382 	4385 	0.044714
43.03 	0.045927 	4333 	0.044980
43.07 	0.043994 	4296 	0.043585
43.11 	0.048179 	4255 	0.047628
43.15 	0.045174 	4206 	0.044616
43.19 	0.043157 	4194 	0.042319
43.23 	0.044054 	4154 	0.043772
43.27 	0.043118 	4105 	0.042119
43.31 	0.045845 	4079 	0.044696
43.35 	0.047371 	4032 	0.046645
43.39 	0.043728 	4002 	0.043289
43.43 	0.042677 	3960 	0.041493
43.47 	0.041571 	3921 	0.040675
43.51 	0.040495 	3877 	0.039891
43.55 	0.037112 	2964 	0.036321
43.59 	0.042955 	1746 	0.042284
43.63 	0.041958 	1001 	0.041373
43.67 	0.049801 	502 	0.048634
43.71 	0.041841 	239 	0.041841
43.75 	0.000000 	16 	0.000000