Folder: Bessy-II-KMC-II-insitu-sin2psi/Example_Data (part 107)

File: 25SC_s1_0043.001.dat
#F C:\frames\spec\25SC_s1_0043.001
#C title =s:43 frm:1 25SC_s1
#C wavelength =0.15406

#S 1  fr_average C:\frames\spec\25SC_s1_0043.001 C:\win32app\speccom\mask.axs chi 0 180 0 360 0.02
#C 2 theta =0.000000 to 180 deg
#C   q   =0.000000 to 81.568 nm^-1
#C  chi  =0.000000 to 360 deg
#C collumns:
#C  1 position (2theta or chi in degrees)
#C  2 average intensity (sum of all counts in the region divided with number of pixels)
#C  3 Number of pixels in region)
#C  4 error (sum of sqrt(intensity) for all pixels divided by number)
#N 4
#L TTh  Int  N_pix  Err
32.99 	0.065574 	61 	0.065574
33.03 	0.071891 	1391 	0.071048
33.07 	0.076098 	2050 	0.073526
33.11 	0.055836 	2579 	0.054927
33.15 	0.059020 	2999 	0.058434
33.19 	0.064034 	3342 	0.062807
33.23 	0.058757 	3523 	0.057593
33.27 	0.058402 	3630 	0.057111
33.31 	0.051639 	3660 	0.050999
33.35 	0.051705 	3694 	0.050595
33.39 	0.057120 	3729 	0.056177
33.43 	0.053177 	3761 	0.053022
33.47 	0.061611 	3798 	0.060686
33.51 	0.062910 	3815 	0.061681
33.55 	0.061671 	3843 	0.060604
33.59 	0.060567 	3880 	0.059812
33.63 	0.058688 	3919 	0.057618
33.67 	0.057916 	3954 	0.056731
33.71 	0.056855 	3975 	0.055234
33.75 	0.060265 	3999 	0.058800
33.79 	0.054442 	4041 	0.053427
33.83 	0.060247 	4050 	0.059379
33.87 	0.055704 	4111 	0.054849
33.91 	0.058568 	4149 	0.058145
33.95 	0.060751 	4181 	0.059770
33.99 	0.053571 	4200 	0.052177
34.03 	0.061499 	4244 	0.060946
34.07 	0.060450 	4268 	0.059489
34.11 	0.052766 	4302 	0.051518
34.15 	0.057954 	4331 	0.057143
34.19 	0.057542 	4362 	0.057005
34.23 	0.059868 	4393 	0.058913
34.27 	0.061284 	4422 	0.060225
34.31 	0.057649 	4458 	0.055657
34.35 	0.058430 	4484 	0.057385
34.39 	0.055309 	4502 	0.054398
34.43 	0.058163 	4539 	0.057388
34.47 	0.053354 	4592 	0.052971
34.51 	0.058402 	4606 	0.057385
34.55 	0.055783 	4643 	0.055026
34.59 	0.052406 	4675 	0.051634
34.63 	0.056263 	4710 	0.054895
34.67 	0.051888 	4741 	0.050652
34.71 	0.054763 	4766 	0.054394
34.75 	0.059068 	4808 	0.058094
34.79 	0.058043 	4824 	0.057436
34.83 	0.058824 	4862 	0.057980
34.87 	0.050534 	4868 	0.049451
34.91 	0.056329 	4882 	0.055729
34.95 	0.046626 	4890 	0.045787
34.99 	0.062487 	4897 	0.060554
35.03 	0.060692 	4943 	0.060218
35.07 	0.054656 	4940 	0.054419
35.11 	0.053972 	4947 	0.052887
35.15 	0.050841 	4937 	0.050366
35.19 	0.058681 	4942 	0.058207
35.23 	0.054196 	4945 	0.053012
35.27 	0.063056 	4948 	0.061635
35.31 	0.055139 	4933 	0.054545
35.35 	0.053217 	4942 	0.052625
35.39 	0.059050 	4945 	0.058102
35.43 	0.056963 	4933 	0.056013
35.47 	0.056784 	4931 	0.055714
35.51 	0.057044 	4926 	0.056212
35.55 	0.053994 	4945 	0.053283
35.59 	0.056421 	4945 	0.055710
35.63 	0.056848 	4943 	0.056256
35.67 	0.048563 	4942 	0.047951
35.71 	0.054689 	4937 	0.053977
35.75 	0.059217 	4931 	0.058386
35.79 	0.055150 	4932 	0.054200
35.83 	0.050748 	4946 	0.050156
35.87 	0.054438 	4923 	0.053129
35.91 	0.060889 	4927 	0.059700
35.95 	0.055928 	4917 	0.055094
35.99 	0.061956 	4939 	0.060888
36.03 	0.055837 	4943 	0.055125
36.07 	0.052642 	4939 	0.052049
36.11 	0.051126 	4929 	0.050413
36.15 	0.052440 	4939 	0.051965
36.19 	0.060324 	4940 	0.059375
36.23 	0.053090 	4935 	0.052497
36.27 	0.061726 	4925 	0.060536
36.31 	0.062094 	4928 	0.061143
36.35 	0.056198 	4929 	0.055604
36.39 	0.054664 	4921 	0.053216
36.43 	0.059862 	4928 	0.059030
36.47 	0.057942 	4936 	0.057467
36.51 	0.056963 	4933 	0.056013
36.55 	0.056627 	4927 	0.055557
36.59 	0.057097 	4939 	0.056217
36.63 	0.059217 	4931 	0.058504
36.67 	0.058621 	4930 	0.057175
36.71 	0.054664 	4921 	0.053592
36.75 	0.053803 	4944 	0.052855
36.79 	0.065840 	4921 	0.064531
36.83 	0.062665 	4915 	0.061593
36.87 	0.056028 	4944 	0.055198
36.91 	0.057073 	4941 	0.055414
36.95 	0.057774 	4933 	0.055874
36.99 	0.055927 	4935 	0.054977
37.03 	0.052600 	4924 	0.052243
37.07 	0.054914 	4935 	0.054439
37.11 	0.059574 	4935 	0.058862
37.15 	0.055408 	4909 	0.054334
37.19 	0.060914 	4925 	0.059843
37.23 	0.057747 	4918 	0.056417
37.27 	0.054557 	4894 	0.054198
37.31 	0.053293 	4935 	0.052937
37.35 	0.054678 	4938 	0.054441
37.39 	0.056581 	4931 	0.055630
37.43 	0.058800 	4932 	0.057612
37.47 	0.049706 	4929 	0.049211
37.51 	0.053923 	4933 	0.052616
37.55 	0.056187 	4930 	0.055593
37.59 	0.051882 	4915 	0.050929
37.63 	0.055092 	4919 	0.054497
37.67 	0.050163 	4904 	0.049924
37.71 	0.049909 	4929 	0.049552
37.75 	0.057895 	4940 	0.056709
37.79 	0.058621 	4930 	0.057195
37.83 	0.057114 	4920 	0.056638
37.87 	0.051225 	4939 	0.050513
37.91 	0.060243 	4930 	0.059036
37.95 	0.051006 	4921 	0.050292
37.99 	0.050285 	4912 	0.049450
38.03 	0.056223 	4909 	0.055130
38.07 	0.054186 	4909 	0.053112
38.11 	0.054306 	4935 	0.053950
38.15 	0.053680 	4918 	0.052946
38.19 	0.062069 	4930 	0.060881
38.23 	0.059538 	4938 	0.058827
38.27 	0.060041 	4930 	0.059070
38.31 	0.069008 	4927 	0.068413
38.35 	0.069399 	4928 	0.067497
38.39 	0.074150 	4909 	0.072718
38.43 	0.077095 	4916 	0.075169
38.47 	0.080905 	4907 	0.078856
38.51 	0.078062 	4932 	0.076161
38.55 	0.069489 	4936 	0.068065
38.59 	0.073111 	4924 	0.071446
38.63 	0.071690 	4924 	0.070738
38.67 	0.061576 	4937 	0.060232
38.71 	0.064988 	4924 	0.064036
38.75 	0.057642 	4927 	0.056790
38.79 	0.053912 	4934 	0.052606
38.83 	0.048587 	4919 	0.047634
38.87 	0.049074 	4911 	0.048358
38.91 	0.050377 	4903 	0.049302
38.95 	0.043717 	4918 	0.042506
38.99 	0.053271 	4937 	0.052441
39.03 	0.046413 	4934 	0.045819
39.07 	0.048741 	4924 	0.047908
39.11 	0.045832 	4931 	0.045595
39.15 	0.049440 	4915 	0.048725
39.19 	0.045149 	4917 	0.044435
39.23 	0.046904 	4925 	0.046051
39.27 	0.047047 	4910 	0.046331
39.31 	0.048321 	4884 	0.047242
39.35 	0.046403 	4935 	0.045810
39.39 	0.047677 	4929 	0.046845
39.43 	0.047638 	4933 	0.047520
39.47 	0.045094 	4923 	0.044856
39.51 	0.047929 	4924 	0.047096
39.55 	0.044318 	4919 	0.043842
39.59 	0.045195 	4912 	0.044361
39.63 	0.044697 	4922 	0.044340
39.67 	0.041930 	4913 	0.041214
39.71 	0.049642 	4895 	0.049283
39.75 	0.049919 	4928 	0.048968
39.79 	0.044255 	4926 	0.043660
39.83 	0.042156 	4934 	0.041306
39.87 	0.045482 	4925 	0.045006
39.91 	0.049167 	4922 	0.048096
39.95 	0.043133 	4915 	0.042518
39.99 	0.048054 	4932 	0.047460
40.03 	0.048701 	4928 	0.047631
40.07 	0.043673 	4923 	0.043197
40.11 	0.042311 	4916 	0.041238
40.15 	0.041115 	4913 	0.040400
40.19 	0.044431 	4929 	0.044312
40.23 	0.042782 	4932 	0.042069
40.27 	0.041118 	4937 	0.040881
40.31 	0.043329 	4939 	0.042973
40.35 	0.044521 	4919 	0.043569
40.39 	0.041168 	4931 	0.040574
40.43 	0.039009 	4922 	0.038651
40.47 	0.038227 	4918 	0.037870
40.51 	0.043072 	4922 	0.042477
40.55 	0.040342 	4908 	0.039865
40.59 	0.036054 	4937 	0.035580
40.63 	0.046450 	4930 	0.045737
40.67 	0.042174 	4932 	0.041580
40.71 	0.043593 	4932 	0.043118
40.75 	0.040763 	4931 	0.040406
40.79 	0.041430 	4924 	0.041430
40.83 	0.042817 	4928 	0.042103
40.87 	0.039367 	4928 	0.038891
40.91 	0.042251 	4923 	0.041775
40.95 	0.039080 	4913 	0.038603
40.99 	0.046710 	4924 	0.045996
41.03 	0.039348 	4905 	0.038750
41.07 	0.041988 	4930 	0.041631
41.11 	0.039514 	4935 	0.039158
41.15 	0.047561 	4941 	0.046968
41.19 	0.040162 	4930 	0.040043
41.23 	0.044746 	4939 	0.044034
41.27 	0.041979 	4931 	0.041742
41.31 	0.041354 	4933 	0.040879
41.35 	0.043945 	4938 	0.043115
41.39 	0.036489 	4933 	0.036133
41.43 	0.041793 	4929 	0.041080
41.47 	0.037353 	4926 	0.036877
41.51 	0.041498 	4940 	0.041024
41.55 	0.043364 	4935 	0.042652
41.59 	0.043787 	4933 	0.042837
41.63 	0.039085 	4938 	0.038847
41.67 	0.039474 	4940 	0.039237
41.71 	0.040332 	4934 	0.039976
41.75 	0.040373 	4929 	0.039898
41.79 	0.034385 	4944 	0.034030
41.83 	0.038352 	4928 	0.037758
41.87 	0.043364 	4935 	0.042770
41.91 	0.037075 	4936 	0.036481
41.95 	0.036909 	4931 	0.036672
41.99 	0.036901 	4905 	0.036662
42.03 	0.037659 	4939 	0.037422
42.07 	0.034636 	4937 	0.034399
42.11 	0.041254 	4945 	0.040898
42.15 	0.041515 	4938 	0.040803
42.19 	0.037082 	4908 	0.036605
42.23 	0.040065 	4892 	0.039826
42.27 	0.042060 	4874 	0.041339
42.31 	0.036251 	4855 	0.035889
42.35 	0.034932 	4838 	0.034690
42.39 	0.038301 	4804 	0.037814
42.43 	0.041736 	4792 	0.041492
42.47 	0.040923 	4765 	0.040678
42.51 	0.033101 	4743 	0.032484
42.55 	0.036958 	4708 	0.036316
42.59 	0.043138 	4729 	0.042519
42.63 	0.039286 	4709 	0.038768
42.67 	0.039283 	4684 	0.038782
42.71 	0.038387 	4663 	0.038010
42.75 	0.034221 	4617 	0.033333
42.79 	0.035792 	4582 	0.035025
42.83 	0.041446 	4536 	0.040930
42.87 	0.035563 	4499 	0.035173
42.91 	0.033887 	4456 	0.033624
42.95 	0.039855 	4416 	0.039037
42.99 	0.034208 	4385 	0.033673
43.03 	0.037387 	4333 	0.036712
43.07 	0.043762 	4296 	0.043057
43.11 	0.039013 	4255 	0.038600
43.15 	0.039943 	4206 	0.039386
43.19 	0.040773 	4194 	0.040354
43.23 	0.037073 	4154 	0.036227
43.27 	0.038490 	4105 	0.038204
43.31 	0.041432 	4079 	0.041001
43.35 	0.040179 	4032 	0.040033
43.39 	0.034233 	4002 	0.033794
43.43 	0.036364 	3960 	0.036068
43.47 	0.035960 	3921 	0.035064
43.51 	0.033531 	3877 	0.032600
43.55 	0.033063 	2964 	0.032471
43.59 	0.029782 	1746 	0.029447
43.63 	0.029970 	1001 	0.029385
43.67 	0.051793 	502 	0.050626
43.71 	0.025105 	239 	0.025105
43.75 	0.000000 	16 	0.000000

File: 25SC_s1_0043.002.dat
#F C:\frames\spec\25SC_s1_0043.002
#C title =s:43 frm:2 25SC_s1
#C wavelength =0.15406

#S 1  fr_average C:\frames\spec\25SC_s1_0043.002 C:\win32app\speccom\mask.axs chi 0 180 0 360 0.02
#C 2 theta =0.000000 to 180 deg
#C   q   =0.000000 to 81.568 nm^-1
#C  chi  =0.000000 to 360 deg
#C collumns:
#C  1 position (2theta or chi in degrees)
#C  2 average intensity (sum of all counts in the region divided with number of pixels)
#C  3 Number of pixels in region)
#C  4 error (sum of sqrt(intensity) for all pixels divided by number)
#N 4
#L TTh  Int  N_pix  Err
32.99 	0.163934 	61 	0.154331
33.03 	0.056794 	1391 	0.055109
33.07 	0.063415 	2050 	0.062843
33.11 	0.062040 	2579 	0.060639
33.15 	0.058019 	2999 	0.057433
33.19 	0.050569 	3342 	0.050218
33.23 	0.052228 	3523 	0.051563
33.27 	0.060606 	3630 	0.059961
33.31 	0.059290 	3660 	0.058009
33.35 	0.056578 	3694 	0.054675
33.39 	0.063556 	3729 	0.062116
33.43 	0.053709 	3761 	0.053242
33.47 	0.054239 	3798 	0.052851
33.51 	0.061337 	3815 	0.059648
33.55 	0.054905 	3843 	0.054143
33.59 	0.055412 	3880 	0.054507
33.63 	0.056137 	3919 	0.055215
33.67 	0.061963 	3954 	0.061074
33.71 	0.060377 	3975 	0.059051
33.75 	0.058265 	3999 	0.057386
33.79 	0.059639 	4041 	0.059349
33.83 	0.055309 	4050 	0.055019
33.87 	0.054245 	4111 	0.053390
33.91 	0.060014 	4149 	0.058603
33.95 	0.059794 	4181 	0.058673
33.99 	0.058571 	4200 	0.058153
34.03 	0.061499 	4244 	0.060532
34.07 	0.051312 	4268 	0.050351
34.11 	0.062762 	4302 	0.061536
34.15 	0.055414 	4331 	0.054873
34.19 	0.054333 	4362 	0.054199
34.23 	0.050990 	4393 	0.049657
34.27 	0.053143 	4422 	0.051610
34.31 	0.055630 	4458 	0.054689
34.35 	0.050624 	4484 	0.049579
34.39 	0.058418 	4502 	0.057096
34.43 	0.061688 	4539 	0.060784
34.47 	0.057927 	4592 	0.057544
34.51 	0.057317 	4606 	0.056426
34.55 	0.053198 	4643 	0.052820
34.59 	0.058610 	4675 	0.058234
34.63 	0.057537 	4710 	0.055776
34.67 	0.056950 	4741 	0.055467
34.71 	0.058540 	4766 	0.057556
34.75 	0.060108 	4808 	0.059479
34.79 	0.058665 	4824 	0.057572
34.83 	0.063760 	4862 	0.062555
34.87 	0.053410 	4868 	0.052808
34.91 	0.054076 	4882 	0.052737
34.95 	0.048466 	4890 	0.047867
34.99 	0.053094 	4897 	0.052256
35.03 	0.056646 	4943 	0.056053
35.07 	0.055870 	4940 	0.054566
35.11 	0.062462 	4947 	0.061633
35.15 	0.052866 	4937 	0.052154
35.19 	0.053217 	4942 	0.052506
35.23 	0.058443 	4945 	0.057258
35.27 	0.048909 	4948 	0.048317
35.31 	0.060612 	4933 	0.059306
35.35 	0.058478 	4942 	0.057530
35.39 	0.052578 	4945 	0.051749
35.43 	0.058382 	4933 	0.057670
35.47 	0.058000 	4931 	0.056437
35.51 	0.058059 	4926 	0.056989
35.55 	0.057836 	4945 	0.057224
35.59 	0.057027 	4945 	0.056317
35.63 	0.057455 	4943 	0.055914
35.67 	0.050384 	4942 	0.049555
35.71 	0.059145 	4937 	0.058552
35.75 	0.061854 	4931 	0.061378
35.79 	0.062855 	4932 	0.062142
35.83 	0.054387 	4946 	0.053795
35.87 	0.057892 	4923 	0.056583
35.91 	0.057845 	4927 	0.057131
35.95 	0.054708 	4917 	0.053755
35.99 	0.057502 	4939 	0.056790
36.03 	0.049970 	4943 	0.048666
36.07 	0.053250 	4939 	0.052182
36.11 	0.060256 	4929 	0.058948
36.15 	0.052035 	4939 	0.051205
36.19 	0.054858 	4940 	0.054503
36.23 	0.058359 	4935 	0.056816
36.27 	0.050558 	4925 	0.049726
36.31 	0.056615 	4928 	0.055783
36.35 	0.051532 	4929 	0.050938
36.39 	0.060150 	4921 	0.058365
36.43 	0.057224 	4928 	0.056392
36.47 	0.051864 	4936 	0.050914
36.51 	0.050476 	4933 	0.049526
36.55 	0.056018 	4927 	0.055423
36.59 	0.060134 	4939 	0.059659
36.63 	0.062056 	4931 	0.060750
36.67 	0.051521 	4930 	0.050808
36.71 	0.052632 	4921 	0.051679
36.75 	0.054005 	4944 	0.052820
36.79 	0.051006 	4921 	0.050411
36.83 	0.060224 	4915 	0.059489
36.87 	0.054814 	4944 	0.053629
36.91 	0.054038 	4941 	0.053563
36.95 	0.053720 	4933 	0.052770
36.99 	0.056738 	4935 	0.055313
37.03 	0.053412 	4924 	0.052698
37.07 	0.064843 	4935 	0.063537
37.11 	0.053090 	4935 	0.052497
37.15 	0.046038 	4909 	0.045322
37.19 	0.057259 	4925 	0.055555
37.23 	0.051850 	4918 	0.051493
37.27 	0.048835 	4894 	0.048357
37.31 	0.058359 	4935 	0.057053
37.35 	0.051438 	4938 	0.050370
37.39 	0.053539 	4931 	0.052331
37.43 	0.054745 	4932 	0.054151
37.47 	0.054778 	4929 	0.053946
37.51 	0.052301 	4933 	0.051470
37.55 	0.052941 	4930 	0.052466
37.59 	0.064496 	4915 	0.063543
37.63 	0.050010 	4919 	0.049177
37.67 	0.051998 	4904 	0.051401
37.71 	0.048894 	4929 	0.047805
37.75 	0.050202 	4940 	0.049491
37.79 	0.048884 	4930 	0.047459
37.83 	0.047358 	4920 	0.046762
37.87 	0.057299 	4939 	0.055994
37.91 	0.060041 	4930 	0.058833
37.95 	0.049990 	4921 	0.049633
37.99 	0.054764 	4912 	0.053929
38.03 	0.056427 	4909 	0.055711
38.07 	0.053779 	4909 	0.052685
38.11 	0.053698 	4935 	0.052392
38.15 	0.049410 	4918 	0.048815
38.19 	0.056592 	4930 	0.055998
38.23 	0.058121 	4938 	0.058002
38.27 	0.054361 	4930 	0.053886
38.31 	0.062513 	4927 	0.061918
38.35 	0.059253 	4928 	0.058302
38.39 	0.066205 	4909 	0.065370
38.43 	0.066314 	4916 	0.064408
38.47 	0.062971 	4907 	0.061758
38.51 	0.068735 	4932 	0.067666
38.55 	0.065640 	4936 	0.064453
38.59 	0.055849 	4924 	0.054897
38.63 	0.060114 	4924 	0.058448
38.67 	0.056512 	4937 	0.055444
38.71 	0.047725 	4924 	0.047250
38.75 	0.057033 	4927 	0.056082
38.79 	0.052088 	4934 	0.051256
38.83 	0.055092 	4919 	0.054616
38.87 	0.050499 	4911 	0.050260
38.91 	0.045890 	4903 	0.045293
38.95 	0.049004 	4918 	0.047813
38.99 	0.053069 	4937 	0.051625
39.03 	0.048439 	4934 	0.047727
39.07 	0.053006 	4924 	0.052768
39.11 	0.046644 	4931 	0.045575
39.15 	0.050458 	4915 	0.049743
39.19 	0.049217 	4917 	0.048483
39.23 	0.046294 	4925 	0.045462
39.27 	0.045621 	4910 	0.044647
39.31 	0.046069 	4884 	0.045589
39.35 	0.044174 	4935 	0.043581
39.39 	0.046257 	4929 	0.045781
39.43 	0.043989 	4933 	0.043514
39.47 	0.043673 	4923 	0.043078
39.51 	0.038383 	4924 	0.037908
39.55 	0.042285 	4919 	0.042166
39.59 	0.050285 	4912 	0.049569
39.63 	0.049980 	4922 	0.048671
39.67 	0.041115 	4913 	0.040758
39.71 	0.047600 	4895 	0.047121
39.75 	0.043019 	4928 	0.042187
39.79 	0.048924 	4926 	0.048092
39.83 	0.039319 	4934 	0.038963
39.87 	0.045076 	4925 	0.044362
39.91 	0.044494 	4922 	0.044018
39.95 	0.043133 	4915 	0.042418
39.99 	0.041768 	4932 	0.041412
40.03 	0.040584 	4928 	0.040109
40.07 	0.048954 	4923 	0.048478
40.11 	0.042311 	4916 	0.041953
40.15 	0.048646 	4913 	0.048408
40.19 	0.038750 	4929 	0.038156
40.23 	0.045418 	4932 	0.044586
40.27 	0.042536 	4937 	0.041805
40.31 	0.047580 	4939 	0.047343
40.35 	0.043301 	4919 	0.043063
40.39 	0.038735 	4931 	0.038616
40.43 	0.044494 	4922 	0.043403
40.47 	0.045750 	4918 	0.045036
40.51 	0.041447 	4922 	0.040851
40.55 	0.040342 	4908 	0.039984
40.59 	0.046790 	4937 	0.046552
40.63 	0.041582 	4930 	0.041107
40.67 	0.045418 	4932 	0.044705
40.71 	0.043390 	4932 	0.042796
40.75 	0.043399 	4931 	0.043043
40.79 	0.044679 	4924 	0.044084
40.83 	0.042614 	4928 	0.042495
40.87 	0.039367 	4928 	0.038654
40.91 	0.039610 	4923 	0.039610
40.95 	0.044372 	4913 	0.043657
40.99 	0.042039 	4924 	0.041306
41.03 	0.042406 	4905 	0.041431
41.07 	0.040568 	4930 	0.040093
41.11 	0.040932 	4935 	0.040220
41.15 	0.042299 	4941 	0.041943
41.19 	0.040771 	4930 	0.040296
41.23 	0.035432 	4939 	0.035314
41.27 	0.043602 	4931 	0.043127
41.31 	0.039935 	4933 	0.039698
41.35 	0.039287 	4938 	0.038813
41.39 	0.046422 	4933 	0.045453
41.43 	0.041185 	4929 	0.040452
41.47 	0.039789 	4926 	0.039432
41.51 	0.041700 	4940 	0.041463
41.55 	0.041135 	4935 	0.041016
41.59 	0.038111 	4933 	0.037873
41.63 	0.038680 	4938 	0.038205
41.67 	0.039879 	4940 	0.039523
41.71 	0.037900 	4934 	0.037782
41.75 	0.035910 	4929 	0.035553
41.79 	0.040655 	4944 	0.040300
41.83 	0.035308 	4928 	0.035071
41.87 	0.040122 	4935 	0.039884
41.91 	0.040113 	4936 	0.039757
41.95 	0.036301 	4931 	0.035707
41.99 	0.037717 	4905 	0.036881
42.03 	0.041304 	4939 	0.041067
42.07 	0.038687 	4937 	0.037976
42.11 	0.042872 	4945 	0.042753
42.15 	0.043945 	4938 	0.043332
42.19 	0.041361 	4908 	0.040645
42.23 	0.039248 	4892 	0.038769
42.27 	0.039803 	4874 	0.039082
42.31 	0.042019 	4855 	0.040933
42.35 	0.035138 	4838 	0.035138
42.39 	0.038301 	4804 	0.037814
42.43 	0.044032 	4792 	0.043298
42.47 	0.043652 	4765 	0.043283
42.51 	0.037318 	4743 	0.036948
42.55 	0.036534 	4708 	0.036036
42.59 	0.036794 	4729 	0.036051
42.63 	0.040773 	4709 	0.040275
42.67 	0.039496 	4684 	0.038996
42.71 	0.039674 	4663 	0.039297
42.75 	0.044401 	4617 	0.044147
42.79 	0.039721 	4582 	0.038826
42.83 	0.039021 	4536 	0.038505
42.87 	0.038898 	4499 	0.037986
42.91 	0.034785 	4456 	0.034522
42.95 	0.040534 	4416 	0.040136
42.99 	0.038997 	4385 	0.038596
43.03 	0.036464 	4333 	0.036329
43.07 	0.039106 	4296 	0.038970
43.11 	0.048649 	4255 	0.048098
43.15 	0.038279 	4206 	0.037304
43.19 	0.035765 	4194 	0.035207
43.23 	0.038758 	4154 	0.038053
43.27 	0.042631 	4105 	0.042203
43.31 	0.046335 	4079 	0.045760
43.35 	0.037946 	4032 	0.037511
43.39 	0.037981 	4002 	0.037981
43.43 	0.042424 	3960 	0.041980
43.47 	0.035705 	3921 	0.035083
43.51 	0.041785 	3877 	0.041634
43.55 	0.037787 	2964 	0.037392
43.59 	0.041810 	1746 	0.041139
43.63 	0.042957 	1001 	0.042957
43.67 	0.053785 	502 	0.053785
43.71 	0.037657 	239 	0.037657
43.75 	0.000000 	16 	0.000000