Folder: Bessy-II-KMC-II-insitu-sin2psi/Example_Data (part 63)

File: 25SC_s1_0025.003.dat
#F C:\frames\spec\25SC_s1_0025.003
#C title =s:25 frm:3 25SC_s1
#C wavelength =0.15406

#S 1  fr_average C:\frames\spec\25SC_s1_0025.003 C:\win32app\speccom\mask.axs chi 0 180 0 360 0.02
#C 2 theta =0.000000 to 180 deg
#C   q   =0.000000 to 81.568 nm^-1
#C  chi  =0.000000 to 360 deg
#C collumns:
#C  1 position (2theta or chi in degrees)
#C  2 average intensity (sum of all counts in the region divided with number of pixels)
#C  3 Number of pixels in region)
#C  4 error (sum of sqrt(intensity) for all pixels divided by number)
#N 4
#L TTh  Int  N_pix  Err
32.99 	0.065574 	61 	0.065574
33.03 	0.058950 	1391 	0.056845
33.07 	0.060488 	2050 	0.059631
33.11 	0.057387 	2579 	0.056251
33.15 	0.065022 	2999 	0.063850
33.19 	0.061939 	3342 	0.060361
33.23 	0.055634 	3523 	0.054470
33.27 	0.055372 	3630 	0.054404
33.31 	0.059836 	3660 	0.058876
33.35 	0.057390 	3694 	0.056280
33.39 	0.065701 	3729 	0.063816
33.43 	0.060090 	3761 	0.059130
33.47 	0.061611 	3798 	0.061149
33.51 	0.059240 	3815 	0.058011
33.55 	0.058808 	3843 	0.058046
33.59 	0.057216 	3880 	0.055556
33.63 	0.056647 	3919 	0.055900
33.67 	0.067527 	3954 	0.065601
33.71 	0.059119 	3975 	0.057769
33.75 	0.060515 	3999 	0.059197
33.79 	0.063846 	4041 	0.062976
33.83 	0.060741 	4050 	0.059704
33.87 	0.057407 	4111 	0.056837
33.91 	0.056399 	4149 	0.055128
33.95 	0.067448 	4181 	0.066467
33.99 	0.060000 	4200 	0.058745
34.03 	0.061263 	4244 	0.060021
34.07 	0.062793 	4268 	0.061420
34.11 	0.058113 	4302 	0.057568
34.15 	0.058185 	4331 	0.057644
34.19 	0.063044 	4362 	0.062507
34.23 	0.056226 	4393 	0.055426
34.27 	0.059701 	4422 	0.059039
34.31 	0.055630 	4458 	0.055105
34.35 	0.060437 	4484 	0.059523
34.39 	0.057974 	4502 	0.057714
34.43 	0.059705 	4539 	0.058027
34.47 	0.062064 	4592 	0.061299
34.51 	0.059922 	4606 	0.059540
34.55 	0.074521 	4643 	0.073259
34.59 	0.056684 	4675 	0.055807
34.63 	0.059023 	4710 	0.058402
34.67 	0.058637 	4741 	0.057505
34.71 	0.061057 	4766 	0.059705
34.75 	0.059900 	4808 	0.058296
34.79 	0.054519 	4824 	0.053790
34.83 	0.062114 	4862 	0.060789
34.87 	0.059162 	4868 	0.058320
34.91 	0.063294 	4882 	0.062334
34.95 	0.058487 	4890 	0.057409
34.99 	0.053298 	4897 	0.052341
35.03 	0.059276 	4943 	0.057696
35.07 	0.057287 	4940 	0.055864
35.11 	0.062058 	4947 	0.061584
35.15 	0.056512 	4937 	0.055563
35.19 	0.062323 	4942 	0.061138
35.23 	0.059454 	4945 	0.058862
35.27 	0.059418 	4948 	0.058352
35.31 	0.061423 	4933 	0.060473
35.35 	0.057264 	4942 	0.056316
35.39 	0.060465 	4945 	0.059281
35.43 	0.059801 	4933 	0.058376
35.47 	0.060028 	4931 	0.059078
35.51 	0.056638 	4926 	0.055925
35.55 	0.057027 	4945 	0.055724
35.59 	0.059050 	4945 	0.057865
35.63 	0.058669 	4943 	0.057583
35.67 	0.058883 	4942 	0.057560
35.71 	0.054689 	4937 	0.054096
35.75 	0.060637 	4931 	0.059330
35.79 	0.054136 	4932 	0.053285
35.83 	0.058027 	4946 	0.057198
35.87 	0.059923 	4923 	0.059070
35.91 	0.061701 	4927 	0.060750
35.95 	0.055725 	4917 	0.055129
35.99 	0.053250 	4939 	0.052301
36.03 	0.062513 	4943 	0.061664
36.07 	0.053857 	4939 	0.053145
36.11 	0.057415 	4929 	0.056346
36.15 	0.056489 	4939 	0.055659
36.19 	0.057085 	4940 	0.056492
36.23 	0.060588 	4935 	0.059757
36.27 	0.062132 	4925 	0.060923
36.31 	0.056006 	4928 	0.055174
36.35 	0.057618 	4929 	0.056667
36.39 	0.063199 	4921 	0.061989
36.43 	0.054383 	4928 	0.053313
36.47 	0.052269 	4936 	0.051676
36.51 	0.051895 	4933 	0.051183
36.55 	0.058656 	4927 	0.058062
36.59 	0.054060 	4939 	0.053210
36.63 	0.049686 	4931 	0.049329
36.67 	0.056389 	4930 	0.056033
36.71 	0.056493 	4921 	0.055183
36.75 	0.054814 	4944 	0.053392
36.79 	0.055477 	4921 	0.054881
36.83 	0.057782 	4915 	0.056829
36.87 	0.055825 	4944 	0.054877
36.91 	0.057883 	4941 	0.056579
36.95 	0.052098 	4933 	0.051386
36.99 	0.058359 	4935 	0.057765
37.03 	0.051990 	4924 	0.051395
37.07 	0.049645 	4935 	0.048577
37.11 	0.058561 	4935 	0.057730
37.15 	0.050927 	4909 	0.050211
37.19 	0.048528 	4925 	0.047576
37.23 	0.053477 	4918 	0.052286
37.27 	0.047201 	4894 	0.046123
37.31 	0.051672 	4935 	0.051316
37.35 	0.057918 	4938 	0.056851
37.39 	0.050902 	4931 	0.050427
37.43 	0.057989 	4932 	0.057157
37.47 	0.050314 	4929 	0.049364
37.51 	0.054531 	4933 	0.053818
37.55 	0.054767 	4930 	0.053697
37.59 	0.051272 	4915 	0.050914
37.63 	0.046961 	4919 	0.046484
37.67 	0.055261 	4904 	0.054425
37.71 	0.046663 	4929 	0.046544
37.75 	0.045951 	4940 	0.045121
37.79 	0.046247 	4930 	0.045772
37.83 	0.053252 	4920 	0.052300
37.87 	0.056287 	4939 	0.055575
37.91 	0.056389 	4930 	0.055677
37.95 	0.057102 	4921 	0.056507
37.99 	0.046213 	4912 	0.045498
38.03 	0.055408 	4909 	0.053857
38.07 	0.058871 	4909 	0.057798
38.11 	0.047011 	4935 	0.046062
38.15 	0.051444 	4918 	0.050967
38.19 	0.057201 	4930 	0.056726
38.23 	0.057108 	4938 	0.056278
38.27 	0.052738 	4930 	0.052025
38.31 	0.059265 	4927 	0.058314
38.35 	0.056006 	4928 	0.055650
38.39 	0.059686 	4909 	0.058970
38.43 	0.064076 	4916 	0.062885
38.47 	0.060526 	4907 	0.059451
38.51 	0.061638 	4932 	0.060213
38.55 	0.054092 	4936 	0.053380
38.59 	0.056864 	4924 	0.055794
38.63 	0.057271 	4924 	0.056200
38.67 	0.054892 	4937 	0.053824
38.71 	0.051178 	4924 	0.050226
38.75 	0.050335 	4927 	0.049859
38.79 	0.053101 	4934 	0.052626
38.83 	0.058142 	4919 	0.057666
38.87 	0.052739 	4911 	0.052023
38.91 	0.056496 	4903 	0.055421
38.95 	0.049410 	4918 	0.048081
38.99 	0.050233 	4937 	0.049402
39.03 	0.051277 	4934 	0.050446
39.07 	0.049553 	4924 	0.049077
39.11 	0.051714 	4931 	0.050763
39.15 	0.052696 	4915 	0.051981
39.19 	0.050234 	4917 	0.049996
39.23 	0.047919 	4925 	0.047324
39.27 	0.046232 	4910 	0.045497
39.31 	0.048526 	4884 	0.048286
39.35 	0.048835 	4935 	0.048004
39.39 	0.045242 	4929 	0.044529
39.43 	0.047233 	4933 	0.046164
39.47 	0.047126 	4923 	0.046293
39.51 	0.053209 	4924 	0.052971
39.55 	0.051027 	4919 	0.049955
39.59 	0.050081 	4912 	0.049604
39.63 	0.047135 	4922 	0.046421
39.67 	0.043354 	4913 	0.043116
39.71 	0.050255 	4895 	0.049418
39.75 	0.048904 	4928 	0.048310
39.79 	0.049736 	4926 	0.048904
39.83 	0.048439 	4934 	0.047608
39.87 	0.052995 	4925 	0.051449
39.91 	0.050386 	4922 	0.050148
39.95 	0.046185 	4915 	0.045947
39.99 	0.055556 	4932 	0.054586
40.03 	0.045455 	4928 	0.044979
40.07 	0.049360 	4923 	0.048646
40.11 	0.044752 	4916 	0.044037
40.15 	0.045593 	4913 	0.044759
40.19 	0.042605 	4929 	0.041892
40.23 	0.045823 	4932 	0.045348
40.27 	0.047397 	4937 	0.046448
40.31 	0.050010 	4939 	0.049536
40.35 	0.043708 	4919 	0.043351
40.39 	0.049483 	4931 	0.049008
40.43 	0.043885 	4922 	0.043052
40.47 	0.051037 	4918 	0.050441
40.51 	0.044697 	4922 	0.044221
40.55 	0.042380 	4908 	0.041902
40.59 	0.048410 	4937 	0.047698
40.63 	0.043611 	4930 	0.042898
40.67 	0.046634 	4932 	0.045922
40.71 	0.045418 	4932 	0.045180
40.75 	0.043196 	4931 	0.043077
40.79 	0.039196 	4924 	0.038958
40.83 	0.050325 	4928 	0.049354
40.87 	0.047281 	4928 	0.045973
40.91 	0.045094 	4923 	0.043905
40.95 	0.048239 	4913 	0.047882
40.99 	0.045288 	4924 	0.044694
41.03 	0.043629 	4905 	0.043271
41.07 	0.046247 	4930 	0.045891
41.11 	0.044377 	4935 	0.043902
41.15 	0.044121 	4941 	0.043508
41.19 	0.042596 	4930 	0.041983
41.23 	0.042114 	4939 	0.041264
41.27 	0.044007 	4931 	0.043394
41.31 	0.044395 	4933 	0.044039
41.35 	0.041717 	4938 	0.041599
41.39 	0.045206 	4933 	0.044493
41.43 	0.045851 	4929 	0.045495
41.47 	0.042225 	4926 	0.041749
41.51 	0.045344 	4940 	0.045107
41.55 	0.040527 	4935 	0.040171
41.59 	0.039935 	4933 	0.039223
41.63 	0.042932 	4938 	0.042576
41.67 	0.040486 	4940 	0.040367
41.71 	0.043575 	4934 	0.042982
41.75 	0.043822 	4929 	0.042990
41.79 	0.043689 	4944 	0.043452
41.83 	0.044440 	4928 	0.043727
41.87 	0.042351 	4935 	0.041876
41.91 	0.041329 	4936 	0.040736
41.95 	0.042182 	4931 	0.041707
41.99 	0.040979 	4905 	0.040979
42.03 	0.043936 	4939 	0.043580
42.07 	0.039295 	4937 	0.038821
42.11 	0.040445 	4945 	0.039853
42.15 	0.038275 	4938 	0.038037
42.19 	0.040954 	4908 	0.040357
42.23 	0.042927 	4892 	0.042189
42.27 	0.044112 	4874 	0.043270
42.31 	0.044284 	4855 	0.043802
42.35 	0.040099 	4838 	0.039857
42.39 	0.040175 	4804 	0.039931
42.43 	0.045075 	4792 	0.044464
42.47 	0.040923 	4765 	0.040678
42.51 	0.043222 	4743 	0.042728
42.55 	0.044817 	4708 	0.043946
42.59 	0.045253 	4729 	0.044138
42.63 	0.035676 	4709 	0.035179
42.67 	0.040991 	4684 	0.040740
42.71 	0.043105 	4663 	0.042603
42.75 	0.042885 	4617 	0.042251
42.79 	0.043649 	4582 	0.043393
42.83 	0.043871 	4536 	0.043484
42.87 	0.043343 	4499 	0.042952
42.91 	0.039048 	4456 	0.038523
42.95 	0.039855 	4416 	0.039324
42.99 	0.045154 	4385 	0.044753
43.03 	0.039003 	4333 	0.038597
43.07 	0.040736 	4296 	0.040190
43.11 	0.039953 	4255 	0.039265
43.15 	0.038041 	4206 	0.037762
43.19 	0.039580 	4194 	0.039022
43.23 	0.042128 	4154 	0.041423
43.27 	0.041657 	4105 	0.041086
43.31 	0.038980 	4079 	0.038406
43.35 	0.040179 	4032 	0.039452
43.39 	0.044728 	4002 	0.043996
43.43 	0.040909 	3960 	0.040613
43.47 	0.043101 	3921 	0.042504
43.51 	0.040495 	3877 	0.040344
43.55 	0.041498 	2964 	0.041300
43.59 	0.041810 	1746 	0.041139
43.63 	0.038961 	1001 	0.037791
43.67 	0.041833 	502 	0.041833
43.71 	0.062762 	239 	0.062762
43.75 	0.000000 	16 	0.000000

File: 25SC_s1_0025.004.dat
#F C:\frames\spec\25SC_s1_0025.004
#C title =s:25 frm:4 25SC_s1
#C wavelength =0.15406

#S 1  fr_average C:\frames\spec\25SC_s1_0025.004 C:\win32app\speccom\mask.axs chi 0 180 0 360 0.02
#C 2 theta =0.000000 to 180 deg
#C   q   =0.000000 to 81.568 nm^-1
#C  chi  =0.000000 to 360 deg
#C collumns:
#C  1 position (2theta or chi in degrees)
#C  2 average intensity (sum of all counts in the region divided with number of pixels)
#C  3 Number of pixels in region)
#C  4 error (sum of sqrt(intensity) for all pixels divided by number)
#N 4
#L TTh  Int  N_pix  Err
32.99 	0.032787 	61 	0.032787
33.03 	0.070453 	1391 	0.070032
33.07 	0.053171 	2050 	0.052885
33.11 	0.056223 	2579 	0.055769
33.15 	0.061354 	2999 	0.060963
33.19 	0.059246 	3342 	0.058720
33.23 	0.059892 	3523 	0.058562
33.27 	0.053994 	3630 	0.052542
33.31 	0.054098 	3660 	0.052978
33.35 	0.047645 	3694 	0.047169
33.39 	0.054170 	3729 	0.053385
33.43 	0.059293 	3761 	0.057579
33.47 	0.059242 	3798 	0.058316
33.51 	0.058191 	3815 	0.057731
33.55 	0.054124 	3843 	0.053057
33.59 	0.057216 	3880 	0.056462
33.63 	0.060730 	3919 	0.059982
33.67 	0.064239 	3954 	0.063202
33.71 	0.057862 	3975 	0.056216
33.75 	0.064516 	3999 	0.062758
33.79 	0.060134 	4041 	0.058974
33.83 	0.058519 	4050 	0.057940
33.87 	0.064704 	4111 	0.063565
33.91 	0.060738 	4149 	0.059326
33.95 	0.063143 	4181 	0.061719
33.99 	0.058571 	4200 	0.057874
34.03 	0.057022 	4244 	0.055917
34.07 	0.061153 	4268 	0.059506
34.11 	0.056950 	4302 	0.055861
34.15 	0.065112 	4331 	0.064165
34.19 	0.059147 	4362 	0.058073
34.23 	0.052811 	4393 	0.052145
34.27 	0.063772 	4422 	0.062712
34.31 	0.055406 	4458 	0.054223
34.35 	0.059322 	4484 	0.058016
34.39 	0.054420 	4502 	0.053640
34.43 	0.060586 	4539 	0.059812
34.47 	0.053789 	4592 	0.053024
34.51 	0.056665 	4606 	0.055521
34.55 	0.057075 	4643 	0.056697
34.59 	0.062032 	4675 	0.061030
34.63 	0.065180 	4710 	0.064434
34.67 	0.060536 	4741 	0.059403
34.71 	0.059799 	4766 	0.058815
34.75 	0.057820 	4808 	0.056724
34.79 	0.059494 	4824 	0.057896
34.83 	0.056355 	4862 	0.055151
34.87 	0.057108 	4868 	0.055744
34.91 	0.060426 	4882 	0.059586
34.95 	0.061554 	4890 	0.060596
34.99 	0.058812 	4897 	0.057974
35.03 	0.060692 	4943 	0.059250
35.07 	0.062753 	4940 	0.061093
35.11 	0.057813 	4947 	0.056747
35.15 	0.054892 	4937 	0.054061
35.19 	0.054634 	4942 	0.054160
35.23 	0.054803 	4945 	0.053855
35.27 	0.057195 	4948 	0.056366
35.31 	0.058990 	4933 	0.057427
35.35 	0.062525 	4942 	0.061696
35.39 	0.053994 	4945 	0.053283
35.43 	0.060207 	4933 	0.059257
35.47 	0.058203 	4931 	0.057372
35.51 	0.058059 	4926 	0.056870
35.55 	0.061881 	4945 	0.060341
35.59 	0.060263 	4945 	0.059789
35.63 	0.054016 	4943 	0.052475
35.67 	0.058074 	4942 	0.056869
35.71 	0.063196 	4937 	0.062128
35.75 	0.061854 	4931 	0.060903
35.79 	0.059813 	4932 	0.058606
35.83 	0.061262 	4946 	0.059939
35.87 	0.056673 	4923 	0.055939
35.91 	0.061498 	4927 	0.060071
35.95 	0.053691 	4917 	0.052500
35.99 	0.064386 	4939 	0.063318
36.03 	0.060490 	4943 	0.059404
36.07 	0.060539 	4939 	0.059353
36.11 	0.055184 	4929 	0.054589
36.15 	0.054869 	4939 	0.053921
36.19 	0.056275 	4940 	0.056038
36.23 	0.053293 	4935 	0.052343
36.27 	0.054619 	4925 	0.053906
36.31 	0.058239 	4928 	0.056456
36.35 	0.060459 	4929 	0.059508
36.39 	0.062386 	4921 	0.061176
36.43 	0.059659 	4928 	0.058470
36.47 	0.052877 	4936 	0.051690
36.51 	0.054733 	4933 	0.054377
36.55 	0.053988 	4927 	0.053037
36.59 	0.058311 	4939 	0.057718
36.63 	0.054756 	4931 	0.053686
36.67 	0.055172 	4930 	0.054459
36.71 	0.054460 	4921 	0.053627
36.75 	0.065129 	4944 	0.063471
36.79 	0.055070 	4921 	0.054594
36.83 	0.054323 	4915 	0.053708
36.87 	0.055421 	4944 	0.054710
36.91 	0.057478 	4941 	0.056411
36.95 	0.054328 	4933 	0.053616
36.99 	0.056738 	4935 	0.056025
37.03 	0.053412 	4924 	0.052579
37.07 	0.049037 	4935 	0.048563
37.11 	0.054711 	4935 	0.053880
37.15 	0.056631 	4909 	0.055557
37.19 	0.056853 	4925 	0.055663
37.23 	0.051240 	4918 	0.051002
37.27 	0.051900 	4894 	0.051781
37.31 	0.055927 	4935 	0.055215
37.35 	0.057311 	4938 	0.056836
37.39 	0.052119 	4931 	0.051288
37.43 	0.050081 	4932 	0.049368
37.47 	0.057415 	4929 	0.056227
37.51 	0.051490 	4933 	0.051134
37.55 	0.056795 	4930 	0.055369
37.59 	0.060224 	4915 	0.059151
37.63 	0.056109 	4919 	0.055633
37.67 	0.052814 	4904 	0.052097
37.71 	0.053561 	4929 	0.052353
37.75 	0.052834 	4940 	0.052360
37.79 	0.052738 	4930 	0.052025
37.83 	0.053659 	4920 	0.053182
37.87 	0.053655 	4939 	0.052706
37.91 	0.054158 	4930 	0.053683
37.95 	0.063808 	4921 	0.063094
37.99 	0.058021 	4912 	0.057067
38.03 	0.056020 	4909 	0.055184
38.07 	0.051945 	4909 	0.051587
38.11 	0.055319 	4935 	0.054370
38.15 	0.055917 	4918 	0.055083
38.19 	0.057606 	4930 	0.056418
38.23 	0.060348 	4938 	0.059637
38.27 	0.067748 	4930 	0.066660
38.31 	0.062919 	4927 	0.061135
38.35 	0.062906 	4928 	0.062074
38.39 	0.067223 	4909 	0.065792
38.43 	0.069569 	4916 	0.067881
38.47 	0.063379 	4907 	0.062424
38.51 	0.064477 	4932 	0.063408
38.55 	0.056321 	4936 	0.055134
38.59 	0.056661 	4924 	0.055472
38.63 	0.057271 	4924 	0.055328
38.67 	0.055702 	4937 	0.055227
38.71 	0.053209 	4924 	0.052138
38.75 	0.056627 	4927 	0.055794
38.79 	0.054520 	4934 	0.053570
38.83 	0.052043 	4919 	0.050852
38.87 	0.054164 	4911 	0.053091
38.91 	0.055476 	4903 	0.054759
38.95 	0.050224 	4918 	0.048913
38.99 	0.055904 	4937 	0.055054
39.03 	0.055736 	4934 	0.055142
39.07 	0.052193 	4924 	0.051480
39.11 	0.054958 	4931 	0.054127
39.15 	0.059613 	4915 	0.059018
39.19 	0.053488 	4917 	0.052416
39.23 	0.053604 	4925 	0.052771
39.27 	0.052342 	4910 	0.051626
39.31 	0.061835 	4884 	0.060155
39.35 	0.052077 	4935 	0.051721
39.39 	0.056198 	4929 	0.055604
39.43 	0.050071 	4933 	0.049240
39.47 	0.052204 	4923 	0.051728
39.51 	0.055646 	4924 	0.054456
39.55 	0.055702 	4919 	0.054750
39.59 	0.051710 	4912 	0.051233
39.63 	0.056887 	4922 	0.055578
39.67 	0.054142 	4913 	0.053069
39.71 	0.053933 	4895 	0.053334
39.75 	0.053977 	4928 	0.052789
39.79 	0.049330 	4926 	0.048617
39.83 	0.053304 	4934 	0.052473
39.87 	0.058477 	4925 	0.057288
39.91 	0.052215 	4922 	0.051262
39.95 	0.056562 	4915 	0.055966
39.99 	0.049067 	4932 	0.047998
40.03 	0.053571 	4928 	0.052502
40.07 	0.053423 	4923 	0.052828
40.11 	0.051871 	4916 	0.050561
40.15 	0.052921 	4913 	0.051828
40.19 	0.054778 	4929 	0.053827
40.23 	0.051298 	4932 	0.050823
40.27 	0.050435 	4937 	0.049961
40.31 	0.049200 	4939 	0.048370
40.35 	0.054483 	4919 	0.053868
40.39 	0.056784 	4931 	0.055457
40.43 	0.054043 	4922 	0.053567
40.47 	0.049207 	4918 	0.048016
40.51 	0.053027 	4922 	0.052432
40.55 	0.048492 	4908 	0.047776
40.59 	0.056917 	4937 	0.056205
40.63 	0.047465 	4930 	0.046514
40.67 	0.052717 	4932 	0.051866
40.71 	0.046026 	4932 	0.045551
40.75 	0.049888 	4931 	0.049176
40.79 	0.050772 	4924 	0.049463
40.83 	0.044846 	4928 	0.044608
40.87 	0.053571 	4928 	0.052363
40.91 	0.047735 	4923 	0.046545
40.95 	0.051700 	4913 	0.050746
40.99 	0.053412 	4924 	0.052341
41.03 	0.047299 	4905 	0.046702
41.07 	0.047059 	4930 	0.046584
41.11 	0.046403 	4935 	0.045197
41.15 	0.048978 	4941 	0.048267
41.19 	0.048479 	4930 	0.047766
41.23 	0.047378 	4939 	0.047022
41.27 	0.051105 	4931 	0.050392
41.31 	0.055950 	4933 	0.054743
41.35 	0.050223 	4938 	0.049630
41.39 	0.051490 	4933 	0.050777
41.43 	0.050720 	4929 	0.050126
41.47 	0.053593 	4926 	0.052404
41.51 	0.051417 	4940 	0.051298
41.55 	0.043972 	4935 	0.043616
41.59 	0.049057 	4933 	0.048701
41.63 	0.053260 	4938 	0.052311
41.67 	0.051619 	4940 	0.051027
41.71 	0.050466 	4934 	0.049991
41.75 	0.049909 	4929 	0.049077
41.79 	0.047128 	4944 	0.046180
41.83 	0.043222 	4928 	0.042390
41.87 	0.047619 	4935 	0.047382
41.91 	0.045786 	4936 	0.045311
41.95 	0.048672 	4931 	0.048196
41.99 	0.050561 	4905 	0.049725
42.03 	0.043329 	4939 	0.042854
42.07 	0.047195 	4937 	0.046720
42.11 	0.049343 	4945 	0.048632
42.15 	0.048198 	4938 	0.047723
42.19 	0.047881 	4908 	0.047404
42.23 	0.044767 	4892 	0.044527
42.27 	0.046163 	4874 	0.045923
42.31 	0.046756 	4855 	0.046394
42.35 	0.044853 	4838 	0.044369
42.39 	0.043922 	4804 	0.043556
42.43 	0.045492 	4792 	0.044637
42.47 	0.045540 	4765 	0.045417
42.51 	0.049336 	4743 	0.048471
42.55 	0.046729 	4708 	0.045609
42.59 	0.053288 	4729 	0.052545
42.63 	0.045870 	4709 	0.045372
42.67 	0.049103 	4684 	0.048353
42.71 	0.047609 	4663 	0.046729
42.75 	0.044401 	4617 	0.043513
42.79 	0.047359 	4582 	0.046720
42.83 	0.046296 	4536 	0.045521
42.87 	0.044010 	4499 	0.043359
42.91 	0.047352 	4456 	0.047089
42.95 	0.038949 	4416 	0.038551
42.99 	0.046066 	4385 	0.045398
43.03 	0.047081 	4333 	0.046269
43.07 	0.047486 	4296 	0.046668
43.11 	0.049824 	4255 	0.049411
43.15 	0.045887 	4206 	0.045469
43.19 	0.041965 	4194 	0.041243
43.23 	0.047906 	4154 	0.047483
43.27 	0.047259 	4105 	0.046118
43.31 	0.040451 	4079 	0.040307
43.35 	0.048859 	4032 	0.047987
43.39 	0.043228 	4002 	0.042497
43.43 	0.043182 	3960 	0.042294
43.47 	0.042081 	3921 	0.041633
43.51 	0.046944 	3877 	0.046490
43.55 	0.044534 	2964 	0.044534
43.59 	0.050401 	1746 	0.050065
43.63 	0.039960 	1001 	0.039375
43.67 	0.033865 	502 	0.033865
43.71 	0.033473 	239 	0.033473
43.75 	0.062500 	16 	0.062500