Folder: Bessy-II-KMC-II-insitu-sin2psi/Example_Data (part 131)

File: 25SC_s1_0052.004.dat
#F C:\frames\spec\25SC_s1_0052.004
#C title =s:52 frm:4 25SC_s1
#C wavelength =0.15406

#S 1  fr_average C:\frames\spec\25SC_s1_0052.004 C:\win32app\speccom\mask.axs chi 0 180 0 360 0.02
#C 2 theta =0.000000 to 180 deg
#C   q   =0.000000 to 81.568 nm^-1
#C  chi  =0.000000 to 360 deg
#C collumns:
#C  1 position (2theta or chi in degrees)
#C  2 average intensity (sum of all counts in the region divided with number of pixels)
#C  3 Number of pixels in region)
#C  4 error (sum of sqrt(intensity) for all pixels divided by number)
#N 4
#L TTh  Int  N_pix  Err
32.99 	0.016393 	61 	0.016393
33.03 	0.081237 	1391 	0.078710
33.07 	0.069756 	2050 	0.068613
33.11 	0.070958 	2579 	0.069595
33.15 	0.075358 	2999 	0.073601
33.19 	0.073309 	3342 	0.072258
33.23 	0.068691 	3523 	0.066862
33.27 	0.065289 	3630 	0.063837
33.31 	0.071585 	3660 	0.069664
33.35 	0.069843 	3694 	0.067940
33.39 	0.066506 	3729 	0.065406
33.43 	0.071524 	3761 	0.069499
33.47 	0.070827 	3798 	0.069130
33.51 	0.070773 	3815 	0.069698
33.55 	0.069737 	3843 	0.069432
33.59 	0.068299 	3880 	0.066613
33.63 	0.072467 	3919 	0.071571
33.67 	0.066515 	3954 	0.064589
33.71 	0.070943 	3975 	0.069470
33.75 	0.067267 	3999 	0.066681
33.79 	0.065083 	4041 	0.063175
33.83 	0.065185 	4050 	0.062703
33.87 	0.070056 	4111 	0.069343
33.91 	0.068450 	4149 	0.067603
33.95 	0.071753 	4181 	0.070632
33.99 	0.073571 	4200 	0.071619
34.03 	0.071159 	4244 	0.069641
34.07 	0.062793 	4268 	0.061535
34.11 	0.056485 	4302 	0.055646
34.15 	0.067652 	4331 	0.066164
34.19 	0.070839 	4362 	0.068937
34.23 	0.072160 	4393 	0.070693
34.27 	0.063998 	4422 	0.062673
34.31 	0.064827 	4458 	0.063623
34.35 	0.072480 	4484 	0.070499
34.39 	0.067970 	4502 	0.066278
34.43 	0.068958 	4539 	0.067796
34.47 	0.065549 	4592 	0.064273
34.51 	0.069475 	4606 	0.067440
34.55 	0.066121 	4643 	0.065112
34.59 	0.067594 	4675 	0.066591
34.63 	0.063057 	4710 	0.061938
34.67 	0.069184 	4741 	0.067825
34.71 	0.063785 	4766 	0.062802
34.75 	0.061980 	4808 	0.061371
34.79 	0.069859 	4824 	0.068280
34.83 	0.061909 	4862 	0.060824
34.87 	0.065325 	4868 	0.063119
34.91 	0.070258 	4882 	0.069298
34.95 	0.070961 	4890 	0.069404
34.99 	0.068001 	4897 	0.066685
35.03 	0.065750 	4943 	0.064920
35.07 	0.067814 	4940 	0.066154
35.11 	0.062664 	4947 	0.061835
35.15 	0.066640 	4937 	0.065334
35.19 	0.063132 	4942 	0.061710
35.23 	0.063701 	4945 	0.062635
35.27 	0.065279 	4948 	0.064450
35.31 	0.062437 	4933 	0.061724
35.35 	0.071631 	4942 	0.070090
35.39 	0.073407 	4945 	0.070999
35.43 	0.065477 	4933 	0.064527
35.47 	0.063070 	4931 	0.061645
35.51 	0.068616 	4926 	0.067030
35.55 	0.065116 	4945 	0.063932
35.59 	0.071385 	4945 	0.069727
35.63 	0.063929 	4943 	0.062862
35.67 	0.065561 	4942 	0.063783
35.71 	0.069678 	4937 	0.068116
35.75 	0.063679 	4931 	0.062610
35.79 	0.061436 	4932 	0.060367
35.83 	0.070158 	4946 	0.067552
35.87 	0.059923 	4923 	0.059209
35.91 	0.064745 	4927 	0.063893
35.95 	0.065487 	4917 	0.064038
35.99 	0.064588 	4939 	0.063382
36.03 	0.068784 	4943 	0.068073
36.07 	0.069042 	4939 	0.067856
36.11 	0.069994 	4929 	0.068192
36.15 	0.065803 	4939 	0.064380
36.19 	0.071457 	4940 	0.070272
36.23 	0.067882 	4935 	0.065746
36.27 	0.064365 	4925 	0.063295
36.31 	0.071226 	4928 	0.069799
36.35 	0.066951 	4929 	0.065406
36.39 	0.075391 	4921 	0.074201
36.43 	0.073255 	4928 	0.071828
36.47 	0.066653 	4936 	0.065466
36.51 	0.071153 	4933 	0.069491
36.55 	0.063325 	4927 	0.062373
36.59 	0.062766 	4939 	0.061580
36.63 	0.064490 	4931 	0.063758
36.67 	0.067951 	4930 	0.066149
36.71 	0.064621 	4921 	0.063312
36.75 	0.069175 	4944 	0.067634
36.79 	0.068685 	4921 	0.067138
36.83 	0.065717 	4915 	0.063413
36.87 	0.068770 	4944 	0.067230
36.91 	0.067598 	4941 	0.066175
36.95 	0.067505 	4933 	0.066673
36.99 	0.069706 	4935 	0.068282
37.03 	0.067831 	4924 	0.066007
37.07 	0.060385 	4935 	0.059198
37.11 	0.070111 	4935 	0.069162
37.15 	0.058668 	4909 	0.058190
37.19 	0.069645 	4925 	0.068098
37.23 	0.056527 	4918 	0.055812
37.27 	0.061708 	4894 	0.060751
37.31 	0.063222 	4935 	0.062391
37.35 	0.065209 	4938 	0.062935
37.39 	0.062665 	4931 	0.061596
37.43 	0.061030 	4932 	0.059466
37.47 	0.062893 	4929 	0.061705
37.51 	0.066491 	4933 	0.065303
37.55 	0.062069 	4930 	0.060861
37.59 	0.068159 	4915 	0.066729
37.63 	0.061801 	4919 	0.061444
37.67 	0.066069 	4904 	0.064496
37.71 	0.061270 	4929 	0.060082
37.75 	0.063158 	4940 	0.061735
37.79 	0.064097 	4930 	0.063028
37.83 	0.061179 	4920 	0.060226
37.87 	0.059931 	4939 	0.059220
37.91 	0.058215 	4930 	0.057264
37.95 	0.054867 	4921 	0.054391
37.99 	0.062704 	4912 	0.061750
38.03 	0.059279 	4909 	0.057489
38.07 	0.059686 	4909 	0.058970
38.11 	0.059372 	4935 	0.057947
38.15 	0.068727 	4918 	0.067397
38.19 	0.067951 	4930 	0.066525
38.23 	0.075537 	4938 	0.073876
38.27 	0.069777 	4930 	0.068094
38.31 	0.065151 	4927 	0.064200
38.35 	0.077516 	4928 	0.074862
38.39 	0.074557 	4909 	0.073602
38.43 	0.079740 	4916 	0.077833
38.47 	0.074587 	4907 	0.072797
38.51 	0.075223 	4932 	0.073085
38.55 	0.074352 	4936 	0.072196
38.59 	0.073111 	4924 	0.071208
38.63 	0.071690 	4924 	0.070381
38.67 	0.078995 	4937 	0.076266
38.71 	0.069456 	4924 	0.068246
38.75 	0.063122 	4927 	0.061695
38.79 	0.058573 	4934 	0.057623
38.83 	0.056312 	4919 	0.055240
38.87 	0.059866 	4911 	0.059150
38.91 	0.057516 	4903 	0.056799
38.95 	0.054290 	4918 	0.053695
38.99 	0.056917 	4937 	0.055849
39.03 	0.052493 	4934 	0.051167
39.07 	0.056458 	4924 	0.055269
39.11 	0.062259 	4931 	0.060576
39.15 	0.059817 	4915 	0.058744
39.19 	0.059182 	4917 	0.058110
39.23 	0.052995 	4925 	0.051667
39.27 	0.058045 	4910 	0.056832
39.31 	0.056306 	4884 	0.055467
39.35 	0.056535 	4935 	0.055704
39.39 	0.051532 	4929 	0.051056
39.43 	0.054733 	4933 	0.053783
39.47 	0.052813 	4923 	0.052218
39.51 	0.049756 	4924 	0.048567
39.55 	0.050010 	4919 	0.049534
39.59 	0.050489 	4912 	0.049396
39.63 	0.051605 	4922 	0.051367
39.67 	0.054549 	4913 	0.053834
39.71 	0.052707 	4895 	0.051869
39.75 	0.054789 	4928 	0.053481
39.79 	0.053796 	4926 	0.052845
39.83 	0.054317 	4934 	0.053367
39.87 	0.056041 	4925 	0.055327
39.91 	0.050386 	4922 	0.049910
39.95 	0.048627 	4915 	0.048388
39.99 	0.053325 	4932 	0.052494
40.03 	0.051948 	4928 	0.051235
40.07 	0.052204 	4923 	0.050895
40.11 	0.045159 	4916 	0.044682
40.15 	0.047629 	4913 	0.047152
40.19 	0.051126 	4929 	0.050532
40.23 	0.052514 	4932 	0.051445
40.27 	0.045372 	4937 	0.045253
40.31 	0.047783 	4939 	0.047309
40.35 	0.053466 	4919 	0.052752
40.39 	0.046441 	4931 	0.045372
40.43 	0.053840 	4922 	0.052769
40.47 	0.048190 	4918 	0.047357
40.51 	0.044494 	4922 	0.043542
40.55 	0.054808 	4908 	0.053973
40.59 	0.056309 	4937 	0.055360
40.63 	0.052738 	4930 	0.051649
40.67 	0.055556 	4932 	0.054487
40.71 	0.051095 	4932 	0.050857
40.75 	0.054147 	4931 	0.052722
40.79 	0.053412 	4924 	0.052460
40.83 	0.051542 	4928 	0.050710
40.87 	0.047890 	4928 	0.047533
40.91 	0.047532 	4923 	0.047294
40.95 	0.048239 	4913 	0.047624
40.99 	0.044476 	4924 	0.044357
41.03 	0.049134 	4905 	0.048298
41.07 	0.053550 	4930 	0.052837
41.11 	0.053698 	4935 	0.053105
41.15 	0.046549 	4941 	0.045601
41.19 	0.046856 	4930 	0.046143
41.23 	0.041304 	4939 	0.040948
41.27 	0.047252 	4931 	0.047133
41.31 	0.048449 	4933 	0.047618
41.35 	0.048603 	4938 	0.047891
41.39 	0.044395 	4933 	0.043920
41.43 	0.047880 	4929 	0.047405
41.47 	0.043849 	4926 	0.043254
41.51 	0.050607 	4940 	0.049540
41.55 	0.050051 	4935 	0.049457
41.59 	0.046827 	4933 	0.046234
41.63 	0.045768 	4938 	0.045174
41.67 	0.045951 	4940 	0.045596
41.71 	0.050669 	4934 	0.049462
41.75 	0.054778 	4929 	0.054302
41.79 	0.050769 	4944 	0.049939
41.83 	0.050122 	4928 	0.049290
41.87 	0.047416 	4935 	0.047060
41.91 	0.044165 	4936 	0.043335
41.95 	0.049077 	4931 	0.048602
41.99 	0.043221 	4905 	0.042863
42.03 	0.044138 	4939 	0.043664
42.07 	0.048005 	4937 	0.047412
42.11 	0.052376 	4945 	0.051902
42.15 	0.047388 	4938 	0.046676
42.19 	0.046455 	4908 	0.045739
42.23 	0.044358 	4892 	0.043759
42.27 	0.045753 	4874 	0.045032
42.31 	0.045520 	4855 	0.044314
42.35 	0.041959 	4838 	0.041596
42.39 	0.050999 	4804 	0.050511
42.43 	0.042988 	4792 	0.041501
42.47 	0.048269 	4765 	0.048023
42.51 	0.044065 	4743 	0.043077
42.55 	0.042056 	4708 	0.041683
42.59 	0.043561 	4729 	0.042818
42.63 	0.042260 	4709 	0.042011
42.67 	0.044193 	4684 	0.043193
42.71 	0.047823 	4663 	0.046693
42.75 	0.049166 	4617 	0.048130
42.79 	0.041030 	4582 	0.040519
42.83 	0.043871 	4536 	0.043484
42.87 	0.049567 	4499 	0.048634
42.91 	0.051840 	4456 	0.051051
42.95 	0.040761 	4416 	0.039965
42.99 	0.048347 	4385 	0.047679
43.03 	0.045234 	4333 	0.044423
43.07 	0.046322 	4296 	0.045640
43.11 	0.049589 	4255 	0.049176
43.15 	0.045649 	4206 	0.045231
43.19 	0.049118 	4194 	0.048140
43.23 	0.046461 	4154 	0.046320
43.27 	0.043849 	4105 	0.043278
43.31 	0.041187 	4079 	0.040612
43.35 	0.041915 	4032 	0.040898
43.39 	0.044978 	4002 	0.043953
43.43 	0.043182 	3960 	0.042590
43.47 	0.044121 	3921 	0.043524
43.51 	0.044106 	3877 	0.043653
43.55 	0.048246 	2964 	0.047850
43.59 	0.041810 	1746 	0.041474
43.63 	0.048951 	1001 	0.048366
43.67 	0.043825 	502 	0.043825
43.71 	0.037657 	239 	0.035206
43.75 	0.062500 	16 	0.062500

File: 25SC_s1_0052.005.dat
#F C:\frames\spec\25SC_s1_0052.005
#C title =s:52 frm:5 25SC_s1
#C wavelength =0.15406

#S 1  fr_average C:\frames\spec\25SC_s1_0052.005 C:\win32app\speccom\mask.axs chi 0 180 0 360 0.02
#C 2 theta =0.000000 to 180 deg
#C   q   =0.000000 to 81.568 nm^-1
#C  chi  =0.000000 to 360 deg
#C collumns:
#C  1 position (2theta or chi in degrees)
#C  2 average intensity (sum of all counts in the region divided with number of pixels)
#C  3 Number of pixels in region)
#C  4 error (sum of sqrt(intensity) for all pixels divided by number)
#N 4
#L TTh  Int  N_pix  Err
32.99 	0.065574 	61 	0.065574
33.03 	0.072610 	1391 	0.070925
33.07 	0.071220 	2050 	0.068648
33.11 	0.065529 	2579 	0.064166
33.15 	0.071357 	2999 	0.070739
33.19 	0.056852 	3342 	0.055801
33.23 	0.063014 	3523 	0.061684
33.27 	0.069421 	3630 	0.068131
33.31 	0.072131 	3660 	0.070344
33.35 	0.060097 	3694 	0.058803
33.39 	0.073746 	3729 	0.072647
33.43 	0.071524 	3761 	0.070122
33.47 	0.070037 	3798 	0.069086
33.51 	0.077851 	3815 	0.075854
33.55 	0.069997 	3843 	0.068016
33.59 	0.068299 	3880 	0.066185
33.63 	0.070936 	3919 	0.069292
33.67 	0.069297 	3954 	0.067964
33.71 	0.067170 	3975 	0.065967
33.75 	0.075519 	3999 	0.073908
33.79 	0.069042 	4041 	0.067738
33.83 	0.069383 	4050 	0.067647
33.87 	0.063975 	4111 	0.062407
33.91 	0.077609 	4149 	0.076056
33.95 	0.073906 	4181 	0.072505
33.99 	0.067381 	4200 	0.066684
34.03 	0.067154 	4244 	0.065475
34.07 	0.063027 	4268 	0.061517
34.11 	0.069735 	4302 	0.067556
34.15 	0.063727 	4331 	0.062509
34.19 	0.069693 	4362 	0.068328
34.23 	0.069429 	4393 	0.067140
34.27 	0.077793 	4422 	0.076203
34.31 	0.072678 	4458 	0.071496
34.35 	0.073372 	4484 	0.072719
34.39 	0.065082 	4502 	0.063911
34.43 	0.066755 	4539 	0.065572
34.47 	0.071211 	4592 	0.070573
34.51 	0.067738 	4606 	0.066975
34.55 	0.064829 	4643 	0.063946
34.59 	0.062246 	4675 	0.061369
34.63 	0.071338 	4710 	0.069452
34.67 	0.065176 	4741 	0.063570
34.71 	0.066513 	4766 	0.065407
34.75 	0.062812 	4808 	0.061594
34.79 	0.064677 	4824 	0.064069
34.83 	0.065611 	4862 	0.064286
34.87 	0.072720 	4868 	0.071256
34.91 	0.072511 	4882 	0.070831
34.95 	0.074438 	4890 	0.072142
34.99 	0.064325 	4897 	0.063607
35.03 	0.065547 	4943 	0.063770
35.07 	0.069231 	4940 	0.067926
35.11 	0.068122 	4947 	0.066820
35.15 	0.075147 	4937 	0.072636
35.19 	0.074059 	4942 	0.071432
35.23 	0.068756 	4945 	0.067216
35.27 	0.073969 	4948 	0.072075
35.31 	0.068518 	4933 	0.067924
35.35 	0.069810 	4942 	0.068150
35.39 	0.064307 	4945 	0.062649
35.43 	0.067505 	4933 	0.066298
35.47 	0.066315 	4931 	0.064890
35.51 	0.070646 	4926 	0.068981
35.55 	0.067745 	4945 	0.065949
35.59 	0.073003 	4945 	0.071818
35.63 	0.065547 	4943 	0.063612
35.67 	0.065965 	4942 	0.064879
35.71 	0.064412 	4937 	0.063106
35.75 	0.064084 	4931 	0.063134
35.79 	0.073601 	4932 	0.071938
35.83 	0.060251 	4946 	0.058593
35.87 	0.063985 	4923 	0.062657
35.91 	0.072458 	4927 	0.070556
35.95 	0.070368 	4917 	0.068700
35.99 	0.061551 	4939 	0.059416
36.03 	0.066761 	4943 	0.065932
36.07 	0.066613 	4939 	0.065407
36.11 	0.069182 	4929 	0.067856
36.15 	0.064386 	4939 	0.063199
36.19 	0.068421 	4940 	0.066880
36.23 	0.059980 	4935 	0.058911
36.27 	0.070457 	4925 	0.069129
36.31 	0.065138 	4928 	0.063949
36.35 	0.067356 	4929 	0.065673
36.39 	0.073969 	4921 	0.072164
36.43 	0.064529 	4928 	0.063935
36.47 	0.065640 	4936 	0.064453
36.51 	0.068315 	4933 	0.067365
36.55 	0.069413 	4927 	0.068581
36.59 	0.063576 	4939 	0.062390
36.63 	0.061245 	4931 	0.060176
36.67 	0.063692 	4930 	0.062622
36.71 	0.066653 	4921 	0.064749
36.75 	0.066343 	4944 	0.064329
36.79 	0.062792 	4921 	0.061007
36.83 	0.065717 	4915 	0.064009
36.87 	0.061084 	4944 	0.060136
36.91 	0.062740 	4941 	0.061910
36.95 	0.057977 	4933 	0.057264
36.99 	0.066464 	4935 	0.064802
37.03 	0.073111 	4924 	0.072160
37.07 	0.061196 	4935 	0.060721
37.11 	0.063222 	4935 	0.061797
37.15 	0.066001 	4909 	0.064788
37.19 	0.058071 	4925 	0.057595
37.23 	0.063237 	4918 	0.062403
37.27 	0.065591 	4894 	0.063895
37.31 	0.067072 	4935 	0.066004
37.35 	0.063791 	4938 	0.062605
37.39 	0.070980 	4931 	0.069534
37.43 	0.061638 	4932 	0.060926
37.47 	0.062487 	4929 	0.061042
37.51 	0.060409 	4933 	0.059222
37.55 	0.067951 	4930 	0.066763
37.59 	0.063886 	4915 	0.063151
37.63 	0.069526 	4919 	0.067840
37.67 	0.061786 	4904 	0.060214
37.71 	0.060256 	4929 	0.059067
37.75 	0.058300 	4940 	0.057470
37.79 	0.068763 	4930 	0.066961
37.83 	0.066260 	4920 	0.065070
37.87 	0.062158 	4939 	0.061091
37.91 	0.065314 	4930 	0.064245
37.95 	0.062182 	4921 	0.060516
37.99 	0.063314 	4912 	0.062480
38.03 	0.058057 	4909 	0.057341
38.07 	0.057242 	4909 	0.056645
38.11 	0.058359 	4935 	0.058240
38.15 	0.061000 	4918 	0.060048
38.19 	0.067951 	4930 	0.066525
38.23 	0.068854 	4938 	0.067549
38.27 	0.067140 	4930 	0.065714
38.31 	0.067587 	4927 	0.065684
38.35 	0.070820 	4928 	0.069988
38.39 	0.068446 	4909 	0.066775
38.43 	0.073027 	4916 	0.070862
38.47 	0.073161 	4907 	0.071967
38.51 	0.070965 	4932 	0.069302
38.55 	0.077796 	4936 	0.076016
38.59 	0.073721 	4924 	0.072273
38.63 	0.070065 	4924 	0.068637
38.67 	0.069273 	4937 	0.067968
38.71 	0.066003 	4924 	0.064933
38.75 	0.067993 	4927 	0.066328
38.79 	0.059384 	4934 	0.058434
38.83 	0.053669 	4919 	0.053193
38.87 	0.058440 	4911 	0.057605
38.91 	0.061187 	4903 	0.059992
38.95 	0.051444 	4918 	0.050372
38.99 	0.058943 	4937 	0.058587
39.03 	0.058370 	4934 	0.056808
39.07 	0.060926 	4924 	0.059736
39.11 	0.052525 	4931 	0.051931
39.15 	0.055544 	4915 	0.055187
39.19 	0.057962 	4917 	0.056771
39.23 	0.055635 	4925 	0.055020
39.27 	0.057841 	4910 	0.056767
39.31 	0.055487 	4884 	0.054648
39.35 	0.058967 	4935 	0.057542
39.39 	0.049300 	4929 	0.048706
39.43 	0.054936 	4933 	0.054461
39.47 	0.052610 	4923 	0.052253
39.51 	0.051178 	4924 	0.050464
39.55 	0.053060 	4919 	0.052107
39.59 	0.053542 	4912 	0.052350
39.63 	0.054043 	4922 	0.053329
39.67 	0.049461 	4913 	0.048984
39.71 	0.053115 	4895 	0.052756
39.75 	0.054789 	4928 	0.053363
39.79 	0.049533 	4926 	0.049176
39.83 	0.053506 	4934 	0.052675
39.87 	0.053198 	4925 	0.051890
39.91 	0.053637 	4922 	0.053042
39.95 	0.054934 	4915 	0.053861
39.99 	0.049270 	4932 	0.048676
40.03 	0.048498 	4928 	0.047547
40.07 	0.053829 	4923 	0.053115
40.11 	0.053092 	4916 	0.052377
40.15 	0.057195 	4913 	0.056480
40.19 	0.050314 	4929 	0.049720
40.23 	0.051095 	4932 	0.050244
40.27 	0.050233 	4937 	0.049758
40.31 	0.051427 	4939 	0.051072
40.35 	0.052246 	4919 	0.051512
40.39 	0.050091 	4931 	0.049616
40.43 	0.050996 	4922 	0.049686
40.47 	0.051444 	4918 	0.050610
40.51 	0.052418 	4922 	0.052061
40.55 	0.048900 	4908 	0.048542
40.59 	0.051651 	4937 	0.051176
40.63 	0.051521 	4930 	0.050808
40.67 	0.049270 	4932 	0.048201
40.71 	0.051095 	4932 	0.050263
40.75 	0.047860 	4931 	0.046791
40.79 	0.048132 	4924 	0.047656
40.83 	0.055195 	4928 	0.054482
40.87 	0.055398 	4928 	0.054685
40.91 	0.049970 	4923 	0.049355
40.95 	0.051496 	4913 	0.050900
40.99 	0.047725 	4924 	0.047250
41.03 	0.048522 	4905 	0.047805
41.07 	0.051318 	4930 	0.051081
41.11 	0.051064 	4935 	0.050826
41.15 	0.051407 	4941 	0.050577
41.19 	0.048479 	4930 	0.047885
41.23 	0.047580 	4939 	0.046632
41.27 	0.052930 	4931 	0.052218
41.31 	0.047638 	4933 	0.047163
41.35 	0.049210 	4938 	0.048143
41.39 	0.047233 	4933 	0.046995
41.43 	0.054778 	4929 	0.054065
41.47 	0.051157 	4926 	0.050305
41.51 	0.051215 	4940 	0.050385
41.55 	0.047619 	4935 	0.046788
41.59 	0.045206 	4933 	0.044592
41.63 	0.048198 	4938 	0.047011
41.67 	0.046964 	4940 	0.046845
41.71 	0.047021 	4934 	0.045814
41.75 	0.053358 	4929 	0.052407
41.79 	0.050566 	4944 	0.049737
41.83 	0.051339 	4928 	0.050388
41.87 	0.046606 	4935 	0.045538
41.91 	0.043963 	4936 	0.043013
41.95 	0.050700 	4931 	0.049868
41.99 	0.049949 	4905 	0.049352
42.03 	0.044948 	4939 	0.044711
42.07 	0.047802 	4937 	0.046853
42.11 	0.050556 	4945 	0.049490
42.15 	0.050425 	4938 	0.049476
42.19 	0.048492 	4908 	0.048015
42.23 	0.050082 	4892 	0.049723
42.27 	0.048831 	4874 	0.048109
42.31 	0.049022 	4855 	0.048177
42.35 	0.047127 	4838 	0.046400
42.39 	0.052040 	4804 	0.051308
42.43 	0.046536 	4792 	0.045558
42.47 	0.044491 	4765 	0.044122
42.51 	0.049968 	4743 	0.049351
42.55 	0.043755 	4708 	0.042636
42.59 	0.049905 	4729 	0.049162
42.63 	0.042897 	4709 	0.042523
42.67 	0.044406 	4684 	0.043906
42.71 	0.045893 	4663 	0.045014
42.75 	0.045917 	4617 	0.045262
42.79 	0.046704 	4582 	0.045426
42.83 	0.046517 	4536 	0.045871
42.87 	0.046455 	4499 	0.045522
42.91 	0.042639 	4456 	0.042113
42.95 	0.041440 	4416 	0.041042
42.99 	0.043330 	4385 	0.042929
43.03 	0.046619 	4333 	0.045943
43.07 	0.046555 	4296 	0.046282
43.11 	0.047944 	4255 	0.046842
43.15 	0.048502 	4206 	0.048084
43.19 	0.051741 	4194 	0.051322
43.23 	0.047424 	4154 	0.046014
43.27 	0.041169 	4105 	0.040456
43.31 	0.045599 	4079 	0.044594
43.35 	0.038194 	4032 	0.037759
43.39 	0.047226 	4002 	0.046934
43.43 	0.044192 	3960 	0.043896
43.47 	0.041571 	3921 	0.041272
43.51 	0.046944 	3877 	0.046012
43.55 	0.044872 	2964 	0.044279
43.59 	0.050974 	1746 	0.050303
43.63 	0.055944 	1001 	0.055944
43.67 	0.053785 	502 	0.053785
43.71 	0.025105 	239 	0.025105
43.75 	0.062500 	16 	0.062500