Folder: Bessy-II-KMC-II-insitu-sin2psi/Example_Data (part 76)

File: 25SC_s1_0030.004.dat
#F C:\frames\spec\25SC_s1_0030.004
#C title =s:30 frm:4 25SC_s1
#C wavelength =0.15406

#S 1  fr_average C:\frames\spec\25SC_s1_0030.004 C:\win32app\speccom\mask.axs chi 0 180 0 360 0.02
#C 2 theta =0.000000 to 180 deg
#C   q   =0.000000 to 81.568 nm^-1
#C  chi  =0.000000 to 360 deg
#C collumns:
#C  1 position (2theta or chi in degrees)
#C  2 average intensity (sum of all counts in the region divided with number of pixels)
#C  3 Number of pixels in region)
#C  4 error (sum of sqrt(intensity) for all pixels divided by number)
#N 4
#L TTh  Int  N_pix  Err
32.99 	0.081967 	61 	0.072364
33.03 	0.055356 	1391 	0.055356
33.07 	0.055610 	2050 	0.054753
33.11 	0.054672 	2579 	0.053310
33.15 	0.068023 	2999 	0.066655
33.19 	0.064931 	3342 	0.063704
33.23 	0.057621 	3523 	0.056596
33.27 	0.056474 	3630 	0.055344
33.31 	0.058197 	3660 	0.057877
33.35 	0.064429 	3694 	0.063160
33.39 	0.058193 	3729 	0.057721
33.43 	0.059559 	3761 	0.058313
33.47 	0.058452 	3798 	0.057681
33.51 	0.064744 	3815 	0.063363
33.55 	0.061931 	3843 	0.061016
33.59 	0.056443 	3880 	0.055990
33.63 	0.055882 	3919 	0.055134
33.67 	0.058928 	3954 	0.058335
33.71 	0.059623 	3975 	0.058444
33.75 	0.058515 	3999 	0.057172
33.79 	0.067558 	4041 	0.066398
33.83 	0.065185 	4050 	0.063160
33.87 	0.059110 	4111 	0.058255
33.91 	0.057845 	4149 	0.056575
33.95 	0.057163 	4181 	0.056883
33.99 	0.055714 	4200 	0.054599
34.03 	0.054194 	4244 	0.053228
34.07 	0.059747 	4268 	0.058512
34.11 	0.057880 	4302 	0.056632
34.15 	0.064188 	4331 	0.062408
34.19 	0.060752 	4362 	0.059409
34.23 	0.058957 	4393 	0.057869
34.27 	0.063772 	4422 	0.062447
34.31 	0.054957 	4458 	0.054038
34.35 	0.061329 	4484 	0.060284
34.39 	0.067303 	4502 	0.066393
34.43 	0.058603 	4539 	0.057571
34.47 	0.055967 	4592 	0.054691
34.51 	0.053626 	4606 	0.052735
34.55 	0.049537 	4643 	0.048906
34.59 	0.050909 	4675 	0.049656
34.63 	0.057113 	4710 	0.055973
34.67 	0.061169 	4741 	0.060057
34.71 	0.057700 	4766 	0.056348
34.75 	0.064892 	4808 	0.063288
34.79 	0.057836 	4824 	0.056864
34.83 	0.057589 	4862 	0.056264
34.87 	0.057313 	4868 	0.056832
34.91 	0.060631 	4882 	0.059671
34.95 	0.057669 	4890 	0.056710
34.99 	0.060649 	4897 	0.059294
35.03 	0.057050 	4943 	0.056102
35.07 	0.064372 	4940 	0.062950
35.11 	0.052557 	4947 	0.051847
35.15 	0.059955 	4937 	0.059006
35.19 	0.051194 	4942 	0.050108
35.23 	0.060465 	4945 	0.059399
35.27 	0.056791 	4948 	0.055449
35.31 	0.064261 	4933 	0.062955
35.35 	0.055645 	4942 	0.054460
35.39 	0.063094 	4945 	0.061909
35.43 	0.050476 	4933 	0.049883
35.47 	0.058000 	4931 	0.057050
35.51 	0.054811 	4926 	0.054217
35.55 	0.061072 	4945 	0.059631
35.59 	0.051972 	4945 	0.050649
35.63 	0.055432 	4943 	0.054128
35.67 	0.058478 	4942 	0.057649
35.71 	0.054892 	4937 	0.053942
35.75 	0.056784 	4931 	0.055814
35.79 	0.055961 	4932 	0.054892
35.83 	0.059846 	4946 	0.059017
35.87 	0.052813 	4923 	0.051742
35.91 	0.061904 	4927 	0.060814
35.95 	0.057555 	4917 	0.057079
35.99 	0.059121 	4939 	0.058054
36.03 	0.059478 	4943 	0.058530
36.07 	0.054869 	4939 	0.053802
36.11 	0.052140 	4929 	0.051308
36.15 	0.053857 	4939 	0.053027
36.19 	0.058502 	4940 	0.057415
36.23 	0.053090 	4935 	0.051903
36.27 	0.060305 	4925 	0.059591
36.31 	0.057224 	4928 	0.056749
36.35 	0.053155 	4929 	0.052442
36.39 	0.059338 	4921 	0.058247
36.43 	0.053774 	4928 	0.052823
36.47 	0.056726 	4936 	0.056014
36.51 	0.051085 	4933 	0.050253
36.55 	0.054800 	4927 	0.053730
36.59 	0.054667 	4939 	0.053580
36.63 	0.059014 	4931 	0.057094
36.67 	0.055781 	4930 	0.054712
36.71 	0.057305 	4921 	0.056472
36.75 	0.061286 	4944 	0.060063
36.79 	0.053851 	4921 	0.052422
36.83 	0.059003 	4915 	0.057811
36.87 	0.057241 	4944 	0.056056
36.91 	0.059097 	4941 	0.057912
36.95 	0.053314 	4933 	0.052127
36.99 	0.051672 	4935 	0.050603
37.03 	0.048538 	4924 	0.047824
37.07 	0.063222 	4935 	0.062154
37.11 	0.050456 	4935 	0.049862
37.15 	0.055408 	4909 	0.054812
37.19 	0.059898 	4925 	0.059304
37.23 	0.061000 	4918 	0.059928
37.27 	0.056191 	4894 	0.055832
37.31 	0.052888 	4935 	0.052294
37.35 	0.052855 	4938 	0.052025
37.39 	0.056986 	4931 	0.056392
37.43 	0.053528 	4932 	0.053053
37.47 	0.051329 	4929 	0.050497
37.51 	0.058990 	4933 	0.057922
37.55 	0.047262 	4930 	0.045955
37.59 	0.056968 	4915 	0.056253
37.63 	0.056516 	4919 	0.055206
37.67 	0.056077 	4904 	0.055002
37.71 	0.054372 	4929 	0.052808
37.75 	0.055870 	4940 	0.054922
37.79 	0.056998 	4930 	0.056166
37.83 	0.053659 	4920 	0.052944
37.87 	0.056894 	4939 	0.056182
37.91 	0.054970 	4930 	0.054138
37.95 	0.052225 	4921 	0.051273
37.99 	0.052728 	4912 	0.051893
38.03 	0.060705 	4909 	0.059373
38.07 	0.057038 	4909 	0.056203
38.11 	0.055319 	4935 	0.054370
38.15 	0.057137 	4918 	0.055946
38.19 	0.059026 	4930 	0.057819
38.23 	0.059336 	4938 	0.058031
38.27 	0.058621 	4930 	0.057551
38.31 	0.066166 	4927 	0.064977
38.35 	0.066761 	4928 	0.066167
38.39 	0.068649 	4909 	0.067217
38.43 	0.067128 	4916 	0.065936
38.47 	0.066843 	4907 	0.066127
38.51 	0.066504 	4932 	0.065673
38.55 	0.061183 	4936 	0.060471
38.59 	0.068034 	4924 	0.066844
38.63 	0.059708 	4924 	0.058875
38.67 	0.058943 	4937 	0.057262
38.71 	0.059504 	4924 	0.058315
38.75 	0.060483 	4927 	0.059532
38.79 	0.058573 	4934 	0.057980
38.83 	0.050213 	4919 	0.049261
38.87 	0.049888 	4911 	0.049033
38.91 	0.048950 	4903 	0.047755
38.95 	0.061814 	4918 	0.060504
38.99 	0.052664 	4937 	0.052426
39.03 	0.055938 	4934 	0.055107
39.07 	0.053615 	4924 	0.053258
39.11 	0.056175 	4931 	0.054868
39.15 	0.058596 	4915 	0.057404
39.19 	0.058166 	4917 	0.057093
39.23 	0.049543 	4925 	0.049067
39.27 	0.049287 	4910 	0.048313
39.31 	0.057944 	4884 	0.057465
39.35 	0.051874 	4935 	0.050549
39.39 	0.057618 	4929 	0.056549
39.43 	0.047436 	4933 	0.046604
39.47 	0.058907 	4923 	0.058193
39.51 	0.053615 	4924 	0.052901
39.55 	0.050417 	4919 	0.049821
39.59 	0.052524 	4912 	0.051213
39.63 	0.052011 	4922 	0.051773
39.67 	0.059027 	4913 	0.058431
39.71 	0.052911 	4895 	0.051714
39.75 	0.058847 	4928 	0.058015
39.79 	0.057044 	4926 	0.055717
39.83 	0.054520 	4934 	0.053926
39.87 	0.054822 	4925 	0.054109
39.91 	0.052621 	4922 	0.051907
39.95 	0.057172 	4915 	0.056099
39.99 	0.053528 	4932 	0.052558
40.03 	0.055195 	4928 	0.054076
40.07 	0.053626 	4923 	0.052674
40.11 	0.052482 	4916 	0.052005
40.15 	0.055363 	4913 	0.054529
40.19 	0.054778 	4929 	0.054184
40.23 	0.055556 	4932 	0.054724
40.27 	0.051853 	4937 	0.050647
40.31 	0.054869 	4939 	0.053802
40.35 	0.051230 	4919 	0.050634
40.39 	0.053539 	4931 	0.052707
40.43 	0.057294 	4922 	0.056104
40.47 	0.050020 	4918 	0.049425
40.51 	0.047745 	4922 	0.047269
40.55 	0.050937 	4908 	0.049982
40.59 	0.048207 	4937 	0.048089
40.63 	0.053550 	4930 	0.053174
40.67 	0.050689 	4932 	0.049739
40.71 	0.050284 	4932 	0.049690
40.75 	0.052728 	4931 	0.052134
40.79 	0.050772 	4924 	0.050177
40.83 	0.049716 	4928 	0.049478
40.87 	0.053166 	4928 	0.052215
40.91 	0.060126 	4923 	0.059174
40.95 	0.049868 	4913 	0.049272
40.99 	0.051178 	4924 	0.050821
41.03 	0.048930 	4905 	0.047716
41.07 	0.048073 	4930 	0.047598
41.11 	0.053698 	4935 	0.052867
41.15 	0.052216 	4941 	0.051268
41.19 	0.051318 	4930 	0.050348
41.23 	0.056287 	4939 	0.055219
41.27 	0.054147 	4931 	0.053434
41.31 	0.049666 	4933 	0.049072
41.35 	0.050020 	4938 	0.049664
41.39 	0.050071 	4933 	0.049358
41.43 	0.051735 	4929 	0.051259
41.47 	0.047909 	4926 	0.047552
41.51 	0.047571 	4940 	0.046978
41.55 	0.047822 	4935 	0.047327
41.59 	0.049868 	4933 	0.049393
41.63 	0.049210 	4938 	0.048854
41.67 	0.046154 	4940 	0.045798
41.71 	0.048237 	4934 	0.047999
41.75 	0.049503 	4929 	0.048077
41.79 	0.047128 	4944 	0.046654
41.83 	0.052151 	4928 	0.050705
41.87 	0.050861 	4935 	0.050030
41.91 	0.049230 	4936 	0.048617
41.95 	0.048063 	4931 	0.046994
41.99 	0.040367 	4905 	0.040009
42.03 	0.042924 	4939 	0.042093
42.07 	0.051448 	4937 	0.050855
42.11 	0.049141 	4945 	0.048193
42.15 	0.051843 	4938 	0.050756
42.19 	0.053382 	4908 	0.052308
42.23 	0.045993 	4892 	0.045514
42.27 	0.046163 	4874 	0.045923
42.31 	0.046550 	4855 	0.045947
42.35 	0.054981 	4838 	0.054255
42.39 	0.044130 	4804 	0.043764
42.43 	0.051544 	4792 	0.050811
42.47 	0.049108 	4765 	0.049108
42.51 	0.044065 	4743 	0.043200
42.55 	0.049915 	4708 	0.049168
42.59 	0.043561 	4729 	0.042818
42.63 	0.045233 	4709 	0.044859
42.67 	0.044406 	4684 	0.044156
42.71 	0.043320 	4663 	0.043194
42.75 	0.047217 	4617 	0.046963
42.79 	0.044740 	4582 	0.043696
42.83 	0.043210 	4536 	0.042822
42.87 	0.049567 	4499 	0.049306
42.91 	0.045557 	4456 	0.044899
42.95 	0.041214 	4416 	0.040418
42.99 	0.046522 	4385 	0.046121
43.03 	0.040388 	4333 	0.039982
43.07 	0.047719 	4296 	0.046764
43.11 	0.050999 	4255 	0.050310
43.15 	0.048027 	4206 	0.047609
43.19 	0.045541 	4194 	0.044703
43.23 	0.045980 	4154 	0.045557
43.27 	0.049695 	4105 	0.049125
43.31 	0.050748 	4079 	0.050317
43.35 	0.047371 	4032 	0.046790
43.39 	0.044728 	4002 	0.043264
43.43 	0.046212 	3960 	0.045768
43.47 	0.048457 	3921 	0.047561
43.51 	0.044364 	3877 	0.043911
43.55 	0.046559 	2964 	0.046163
43.59 	0.049255 	1746 	0.047913
43.63 	0.042957 	1001 	0.042957
43.67 	0.031873 	502 	0.030706
43.71 	0.066946 	239 	0.064495
43.75 	0.000000 	16 	0.000000

File: 25SC_s1_0031.000.dat
#F C:\frames\spec\25SC_s1_0031.000
#C title =s:31 frm:0 25SC_s1
#C wavelength =0.15406

#S 1  fr_average C:\frames\spec\25SC_s1_0031.000 C:\win32app\speccom\mask.axs chi 0 180 0 360 0.02
#C 2 theta =0.000000 to 180 deg
#C   q   =0.000000 to 81.568 nm^-1
#C  chi  =0.000000 to 360 deg
#C collumns:
#C  1 position (2theta or chi in degrees)
#C  2 average intensity (sum of all counts in the region divided with number of pixels)
#C  3 Number of pixels in region)
#C  4 error (sum of sqrt(intensity) for all pixels divided by number)
#N 4
#L TTh  Int  N_pix  Err
32.99 	0.081967 	61 	0.072364
33.03 	0.061826 	1391 	0.060984
33.07 	0.067805 	2050 	0.065805
33.11 	0.054285 	2579 	0.053149
33.15 	0.059020 	2999 	0.058434
33.19 	0.063136 	3342 	0.061909
33.23 	0.059324 	3523 	0.058659
33.27 	0.066667 	3630 	0.066021
33.31 	0.059016 	3660 	0.057870
33.35 	0.057390 	3694 	0.056439
33.39 	0.061947 	3729 	0.061319
33.43 	0.063281 	3761 	0.062321
33.47 	0.069247 	3798 	0.068167
33.51 	0.053473 	3815 	0.053012
33.55 	0.063232 	3843 	0.062292
33.59 	0.062887 	3880 	0.061830
33.63 	0.060985 	3919 	0.059640
33.67 	0.060445 	3954 	0.059704
33.71 	0.067170 	3975 	0.065991
33.75 	0.066517 	3999 	0.064466
33.79 	0.058896 	4041 	0.058027
33.83 	0.063951 	4050 	0.063083
33.87 	0.060569 	4111 	0.059572
33.91 	0.060255 	4149 	0.059408
33.95 	0.058598 	4181 	0.057478
33.99 	0.067381 	4200 	0.066823
34.03 	0.065269 	4244 	0.064026
34.07 	0.064667 	4268 	0.063158
34.11 	0.063226 	4302 	0.061320
34.15 	0.045948 	4331 	0.045001
34.19 	0.061669 	4362 	0.060729
34.23 	0.061234 	4393 	0.060434
34.27 	0.056309 	4422 	0.055515
34.31 	0.057201 	4458 	0.055887
34.35 	0.059768 	4484 	0.058854
34.39 	0.059529 	4502 	0.058358
34.43 	0.062789 	4539 	0.061499
34.47 	0.052918 	4592 	0.051642
34.51 	0.051889 	4606 	0.051126
34.55 	0.057075 	4643 	0.056424
34.59 	0.064385 	4675 	0.063759
34.63 	0.055839 	4710 	0.055092
34.67 	0.061169 	4741 	0.060551
34.71 	0.060428 	4766 	0.059568
34.75 	0.058860 	4808 	0.057398
34.79 	0.058458 	4824 	0.057851
34.83 	0.058001 	4862 	0.057017
34.87 	0.060394 	4868 	0.059672
34.91 	0.059402 	4882 	0.058922
34.95 	0.057055 	4890 	0.056336
34.99 	0.059628 	4897 	0.058432
35.03 	0.056848 	4943 	0.056256
35.07 	0.058907 	4940 	0.058195
35.11 	0.058824 	4947 	0.057995
35.15 	0.059753 	4937 	0.058804
35.19 	0.057467 	4942 	0.056617
35.23 	0.058038 	4945 	0.057209
35.27 	0.059620 	4948 	0.058791
35.31 	0.055544 	4933 	0.054832
35.35 	0.059895 	4942 	0.058828
35.39 	0.058443 	4945 	0.057258
35.43 	0.057977 	4933 	0.056770
35.47 	0.059826 	4931 	0.058519
35.51 	0.055826 	4926 	0.054142
35.55 	0.061476 	4945 	0.060765
35.59 	0.053792 	4945 	0.052844
35.63 	0.055027 	4943 	0.054079
35.67 	0.055443 	4942 	0.054594
35.71 	0.060968 	4937 	0.060256
35.75 	0.057798 	4931 	0.056610
35.79 	0.057178 	4932 	0.056584
35.83 	0.059038 	4946 	0.057853
35.87 	0.054438 	4923 	0.053367
35.91 	0.062310 	4927 	0.061359
35.95 	0.054301 	4917 	0.053467
35.99 	0.057704 	4939 	0.056854
36.03 	0.059276 	4943 	0.057972
36.07 	0.051832 	4939 	0.051002
36.11 	0.054169 	4929 	0.053575
36.15 	0.057906 	4939 	0.057432
36.19 	0.061943 	4940 	0.060283
36.23 	0.059574 	4935 	0.058031
36.27 	0.059695 	4925 	0.058368
36.31 	0.057833 	4928 	0.057238
36.35 	0.054372 	4929 	0.053897
36.39 	0.054460 	4921 	0.053627
36.43 	0.054992 	4928 	0.054041
36.47 	0.056929 	4936 	0.056335
36.51 	0.059193 	4933 	0.058124
36.55 	0.058453 	4927 	0.057621
36.59 	0.058109 	4939 	0.057397
36.63 	0.057189 	4931 	0.056219
36.67 	0.056592 	4930 	0.055166
36.71 	0.058525 	4921 	0.057334
36.75 	0.058252 	4944 	0.056831
36.79 	0.052022 	4921 	0.051189
36.83 	0.058393 	4915 	0.057062
36.87 	0.059871 	4944 	0.058804
36.91 	0.058288 	4941 	0.057221
36.95 	0.057369 	4933 	0.056538
36.99 	0.049240 	4935 	0.048528
37.03 	0.054224 	4924 	0.053391
37.07 	0.056738 	4935 	0.055432
37.11 	0.061196 	4935 	0.059139
37.15 	0.053168 	4909 	0.051974
37.19 	0.054416 	4925 	0.053465
37.23 	0.055510 	4918 	0.054796
37.27 	0.061708 	4894 	0.060751
37.31 	0.060385 	4935 	0.059673
37.35 	0.054273 	4938 	0.053443
37.39 	0.058203 	4931 	0.057490
37.43 	0.057786 	4932 	0.056479
37.47 	0.048489 	4929 	0.047775
37.51 	0.057977 	4933 	0.057007
37.55 	0.055375 	4930 	0.054068
37.59 	0.051679 	4915 	0.050725
37.63 	0.054076 	4919 	0.053004
37.67 	0.056281 	4904 	0.055564
37.71 	0.058835 	4929 	0.057885
37.75 	0.055870 	4940 	0.054803
37.79 	0.054970 	4930 	0.053643
37.83 	0.054065 	4920 	0.053232
37.87 	0.056894 	4939 	0.055945
37.91 	0.058012 	4930 	0.056943
37.95 	0.049990 	4921 	0.049276
37.99 	0.056189 	4912 	0.055096
38.03 	0.058464 	4909 	0.057271
38.07 	0.058260 	4909 	0.057664
38.11 	0.058561 	4935 	0.057730
38.15 	0.057340 	4918 	0.056268
38.19 	0.059838 	4930 	0.059125
38.23 	0.059133 	4938 	0.058184
38.27 	0.061460 	4930 	0.060391
38.31 	0.062310 	4927 	0.061953
38.35 	0.070414 	4928 	0.069443
38.39 	0.070890 	4909 	0.069100
38.43 	0.076892 	4916 	0.075104
38.47 	0.076625 	4907 	0.074934
38.51 	0.076237 	4932 	0.073980
38.55 	0.081848 	4936 	0.079711
38.59 	0.082047 	4924 	0.079886
38.63 	0.074127 	4924 	0.072323
38.67 	0.077172 	4937 	0.075274
38.71 	0.066816 	4924 	0.065487
38.75 	0.071240 	4927 	0.070408
38.79 	0.061613 	4934 	0.060664
38.83 	0.063224 	4919 	0.062272
38.87 	0.058644 	4911 	0.057690
38.91 	0.052009 	4903 	0.051292
38.95 	0.049004 	4918 	0.048646
38.99 	0.054689 	4937 	0.054214
39.03 	0.051074 	4934 	0.049749
39.07 	0.052803 	4924 	0.051970
39.11 	0.051308 	4931 	0.050476
39.15 	0.050458 	4915 	0.050100
39.19 	0.049217 	4917 	0.048145
39.23 	0.043046 	4925 	0.042689
39.27 	0.048676 	4910 	0.047960
39.31 	0.047502 	4884 	0.046662
39.35 	0.044377 	4935 	0.044021
39.39 	0.048083 	4929 	0.047251
39.43 	0.042976 	4933 	0.042857
39.47 	0.042657 	4923 	0.041943
39.51 	0.047116 	4924 	0.046521
39.55 	0.045741 	4919 	0.044312
39.59 	0.044992 	4912 	0.044634
39.63 	0.052011 	4922 	0.051059
39.67 	0.038673 	4913 	0.038315
39.71 	0.039632 	4895 	0.039513
39.75 	0.048498 	4928 	0.047547
39.79 	0.041007 	4926 	0.040650
39.83 	0.049858 	4934 	0.049027
39.87 	0.047107 	4925 	0.046512
39.91 	0.045713 	4922 	0.045594
39.95 	0.045168 	4915 	0.044810
39.99 	0.047851 	4932 	0.047138
40.03 	0.038555 	4928 	0.038080
40.07 	0.049766 	4923 	0.048695
40.11 	0.048617 	4916 	0.048021
40.15 	0.044576 	4913 	0.043979
40.19 	0.045040 	4929 	0.043732
40.23 	0.046837 	4932 	0.046124
40.27 	0.049018 	4937 	0.047950
40.31 	0.041101 	4939 	0.040746
40.35 	0.041269 	4919 	0.040911
40.39 	0.043399 	4931 	0.042924
40.43 	0.042259 	4922 	0.041783
40.47 	0.045954 	4918 	0.045219
40.51 	0.042056 	4922 	0.041342
40.55 	0.040954 	4908 	0.040476
40.59 	0.044359 	4937 	0.043766
40.63 	0.042394 	4930 	0.041799
40.67 	0.042579 	4932 	0.042460
40.71 	0.044809 	4932 	0.043740
40.75 	0.048063 	4931 	0.047944
40.79 	0.038790 	4924 	0.038195
40.83 	0.040179 	4928 	0.039822
40.87 	0.045455 	4928 	0.045098
40.91 	0.038797 	4923 	0.038203
40.95 	0.047018 	4913 	0.046541
40.99 	0.041430 	4924 	0.040102
41.03 	0.038532 	4905 	0.038293
41.07 	0.042799 	4930 	0.042324
41.11 	0.041945 	4935 	0.041233
41.15 	0.039061 	4941 	0.038705
41.19 	0.043611 	4930 	0.043254
41.23 	0.039684 	4939 	0.039447
41.27 	0.046238 	4931 	0.045763
41.31 	0.039530 	4933 	0.038580
41.35 	0.037870 	4938 	0.037227
41.39 	0.037503 	4933 	0.037265
41.43 	0.037127 	4929 	0.036890
41.47 	0.042022 	4926 	0.040952
41.51 	0.037247 	4940 	0.036891
41.55 	0.039919 	4935 	0.039563
41.59 	0.040341 	4933 	0.039866
41.63 	0.037465 	4938 	0.036753
41.67 	0.044130 	4940 	0.043280
41.71 	0.035874 	4934 	0.035399
41.75 	0.041793 	4929 	0.041556
41.79 	0.033374 	4944 	0.033018
41.83 	0.040381 	4928 	0.040025
41.87 	0.037690 	4935 	0.037334
41.91 	0.043558 	4936 	0.042964
41.95 	0.040965 	4931 	0.040609
41.99 	0.040979 	4905 	0.040262
42.03 	0.042316 	4939 	0.042079
42.07 	0.036459 	4937 	0.036341
42.11 	0.040849 	4945 	0.040376
42.15 	0.043337 	4938 	0.043337
42.19 	0.037897 	4908 	0.037659
42.23 	0.033933 	4892 	0.033574
42.27 	0.038777 	4874 	0.038176
42.31 	0.036045 	4855 	0.035563
42.35 	0.035552 	4838 	0.035189
42.39 	0.035387 	4804 	0.035021
42.43 	0.040484 	4792 	0.039506
42.47 	0.035047 	4765 	0.034433
42.51 	0.038372 	4743 	0.037878
42.55 	0.045667 	4708 	0.044920
42.59 	0.039332 	4729 	0.039084
42.63 	0.039711 	4709 	0.039462
42.67 	0.043126 	4684 	0.042375
42.71 	0.041175 	4663 	0.040421
42.75 	0.037687 	4617 	0.037433
42.79 	0.040812 	4582 	0.040173
42.83 	0.044533 	4536 	0.043499
42.87 	0.041565 	4499 	0.040914
42.91 	0.040844 	4456 	0.040449
42.95 	0.042120 	4416 	0.041987
42.99 	0.034892 	4385 	0.034892
43.03 	0.041080 	4333 	0.040404
43.07 	0.038641 	4296 	0.038232
43.11 	0.043243 	4255 	0.042555
43.15 	0.037803 	4206 	0.037362
43.19 	0.037196 	4194 	0.036777
43.23 	0.036591 	4154 	0.036168
43.27 	0.038733 	4105 	0.038591
43.31 	0.036038 	4079 	0.035607
43.35 	0.035714 	4032 	0.035278
43.39 	0.038731 	4002 	0.037852
43.43 	0.035354 	3960 	0.035058
43.47 	0.036725 	3921 	0.035829
43.51 	0.031726 	3877 	0.031121
43.55 	0.037112 	2964 	0.036914
43.59 	0.036082 	1746 	0.035411
43.63 	0.052947 	1001 	0.052362
43.67 	0.031873 	502 	0.031873
43.71 	0.029289 	239 	0.029289
43.75 	0.187500 	16 	0.187500