Folder: Bessy-II-KMC-II-insitu-sin2psi/Example_Data (part 99)

File: 25SC_s1_0040.000.dat
#F C:\frames\spec\25SC_s1_0040.000
#C title =s:40 frm:0 25SC_s1
#C wavelength =0.15406

#S 1  fr_average C:\frames\spec\25SC_s1_0040.000 C:\win32app\speccom\mask.axs chi 0 180 0 360 0.02
#C 2 theta =0.000000 to 180 deg
#C   q   =0.000000 to 81.568 nm^-1
#C  chi  =0.000000 to 360 deg
#C collumns:
#C  1 position (2theta or chi in degrees)
#C  2 average intensity (sum of all counts in the region divided with number of pixels)
#C  3 Number of pixels in region)
#C  4 error (sum of sqrt(intensity) for all pixels divided by number)
#N 4
#L TTh  Int  N_pix  Err
32.99 	0.114754 	61 	0.114754
33.03 	0.065421 	1391 	0.064157
33.07 	0.066829 	2050 	0.066258
33.11 	0.061652 	2579 	0.060706
33.15 	0.059353 	2999 	0.057368
33.19 	0.060144 	3342 	0.058917
33.23 	0.059041 	3523 	0.058375
33.27 	0.069146 	3630 	0.067694
33.31 	0.057104 	3660 	0.056304
33.35 	0.059827 	3694 	0.058400
33.39 	0.067042 	3729 	0.065785
33.43 	0.056102 	3761 	0.055323
33.47 	0.065298 	3798 	0.064347
33.51 	0.062123 	3815 	0.060434
33.55 	0.064012 	3843 	0.062793
33.59 	0.061082 	3880 	0.060630
33.63 	0.058688 	3919 	0.058240
33.67 	0.061457 	3954 	0.059655
33.71 	0.063145 	3975 	0.062260
33.75 	0.064516 	3999 	0.063491
33.79 	0.066815 	4041 	0.065076
33.83 	0.062469 	4050 	0.061891
33.87 	0.056677 	4111 	0.055822
33.91 	0.055676 	4149 	0.053959
33.95 	0.062425 	4181 	0.061164
33.99 	0.059286 	4200 	0.058588
34.03 	0.058435 	4244 	0.056917
34.07 	0.056935 	4268 	0.056524
34.11 	0.052534 	4302 	0.052261
34.15 	0.060725 	4331 	0.059778
34.19 	0.054791 	4362 	0.053561
34.23 	0.062600 	4393 	0.060844
34.27 	0.061737 	4422 	0.061472
34.31 	0.054733 	4458 	0.054207
34.35 	0.061552 	4484 	0.060899
34.39 	0.056197 	4502 	0.055286
34.43 	0.053977 	4539 	0.053202
34.47 	0.056838 	4592 	0.055690
34.51 	0.058185 	4606 	0.057549
34.55 	0.060521 	4643 	0.059133
34.59 	0.057754 	4675 	0.057128
34.63 	0.057325 	4710 	0.056454
34.67 	0.055474 	4741 	0.054362
34.71 	0.059589 	4766 	0.058728
34.75 	0.051581 	4808 	0.050972
34.79 	0.062396 	4824 	0.061789
34.83 	0.058001 	4862 	0.057398
34.87 	0.057518 	4868 	0.056556
34.91 	0.057558 	4882 	0.056478
34.95 	0.052761 	4890 	0.052282
34.99 	0.063712 	4897 	0.062397
35.03 	0.052195 	4943 	0.051840
35.07 	0.057085 	4940 	0.056018
35.11 	0.062260 	4947 	0.061549
35.15 	0.053271 	4937 	0.052678
35.19 	0.054027 	4942 	0.053434
35.23 	0.050961 	4945 	0.050250
35.27 	0.064875 	4948 	0.063454
35.31 	0.055747 	4933 	0.055272
35.35 	0.053420 	4942 	0.052116
35.39 	0.062285 	4945 	0.061574
35.43 	0.053314 	4933 	0.052364
35.47 	0.056378 	4931 	0.055665
35.51 	0.054405 	4926 	0.053216
35.55 	0.053387 	4945 	0.052657
35.59 	0.061274 	4945 	0.060208
35.63 	0.055027 	4943 	0.054435
35.67 	0.057467 	4942 	0.056637
35.71 	0.052461 	4937 	0.051393
35.75 	0.058609 	4931 	0.057064
35.79 	0.059408 	4932 	0.058458
35.83 	0.058229 	4946 	0.057163
35.87 	0.065001 	4923 	0.063197
35.91 	0.057236 	4927 	0.056166
35.95 	0.062233 	4917 	0.061280
35.99 	0.062563 	4939 	0.061614
36.03 	0.054825 	4943 	0.053758
36.07 	0.056084 	4939 	0.055017
36.11 	0.060661 	4929 	0.059711
36.15 	0.057097 	4939 	0.055535
36.19 	0.059919 	4940 	0.058970
36.23 	0.055319 	4935 	0.054488
36.27 	0.061117 	4925 	0.060403
36.31 	0.056412 	4928 	0.055580
36.35 	0.054372 	4929 	0.054134
36.39 	0.058931 	4921 	0.057483
36.43 	0.059253 	4928 	0.058302
36.47 	0.064627 	4936 	0.063915
36.51 	0.057166 	4933 	0.056572
36.55 	0.057439 	4927 	0.056587
36.59 	0.055882 	4939 	0.054933
36.63 	0.063882 	4931 	0.063050
36.67 	0.052941 	4930 	0.052328
36.71 	0.056899 	4921 	0.056185
36.75 	0.060073 	4944 	0.059599
36.79 	0.061979 	4921 	0.061622
36.83 	0.054120 	4915 	0.053167
36.87 	0.056634 	4944 	0.055923
36.91 	0.059502 	4941 	0.058791
36.95 	0.055544 	4933 	0.054832
36.99 	0.053293 	4935 	0.052818
37.03 	0.055849 	4924 	0.054302
37.07 	0.053901 	4935 	0.053406
37.11 	0.058156 	4935 	0.057681
37.15 	0.059075 	4909 	0.058001
37.19 	0.057056 	4925 	0.056104
37.23 	0.059170 	4918 	0.058317
37.27 	0.056600 	4894 	0.055762
37.31 	0.059574 	4935 	0.058506
37.35 	0.057918 	4938 	0.056475
37.39 	0.057189 	4931 	0.055725
37.43 	0.055556 	4932 	0.054843
37.47 	0.052140 	4929 	0.051527
37.51 	0.054936 	4933 	0.053986
37.55 	0.055984 	4930 	0.055390
37.59 	0.056968 	4915 	0.055657
37.63 	0.060785 	4919 	0.059832
37.67 	0.063214 	4904 	0.062119
37.71 	0.059241 	4929 	0.058409
37.75 	0.061538 	4940 	0.060827
37.79 	0.058824 	4930 	0.057754
37.83 	0.059350 	4920 	0.058754
37.87 	0.054667 	4939 	0.052651
37.91 	0.053955 	4930 	0.053124
37.95 	0.053444 	4921 	0.052849
37.99 	0.053746 	4912 	0.052911
38.03 	0.055612 	4909 	0.054538
38.07 	0.063760 	4909 	0.062806
38.11 	0.058156 	4935 	0.057681
38.15 	0.058357 	4918 	0.056809
38.19 	0.061866 	4930 	0.061510
38.23 	0.063994 	4938 	0.062570
38.27 	0.071400 	4930 	0.070093
38.31 	0.076111 	4927 	0.074685
38.35 	0.077719 	4928 	0.075698
38.39 	0.078631 	4909 	0.077557
38.43 	0.085028 	4916 	0.082864
38.47 	0.080293 	4907 	0.078364
38.51 	0.083131 	4932 	0.081111
38.55 	0.077796 	4936 	0.075640
38.59 	0.073314 	4924 	0.072006
38.63 	0.075345 	4924 	0.073779
38.67 	0.069070 	4937 	0.067646
38.71 	0.066816 	4924 	0.066221
38.75 	0.067587 	4927 	0.066636
38.79 	0.062424 	4934 	0.061474
38.83 	0.056312 	4919 	0.055717
38.87 	0.054164 	4911 	0.053210
38.91 	0.053437 	4903 	0.052361
38.95 	0.049004 	4918 	0.048527
38.99 	0.055297 	4937 	0.054091
39.03 	0.052493 	4934 	0.051405
39.07 	0.046507 	4924 	0.046031
39.11 	0.049686 	4931 	0.049092
39.15 	0.045168 	4915 	0.044572
39.19 	0.043116 	4917 	0.042639
39.23 	0.044061 	4925 	0.043347
39.27 	0.050306 	4910 	0.049093
39.31 	0.047093 	4884 	0.046493
39.35 	0.047822 	4935 	0.046991
39.39 	0.044431 	4929 	0.043718
39.43 	0.049463 	4933 	0.048256
39.47 	0.042454 	4923 	0.041978
39.51 	0.046507 	4924 	0.045793
39.55 	0.046961 	4919 	0.046008
39.59 	0.046417 	4912 	0.046178
39.63 	0.051808 	4922 	0.051213
39.67 	0.037859 	4913 	0.037501
39.71 	0.046782 	4895 	0.046423
39.75 	0.043628 	4928 	0.043153
39.79 	0.048112 	4926 	0.047161
39.83 	0.047223 	4934 	0.046392
39.87 	0.044670 	4925 	0.044194
39.91 	0.045510 	4922 	0.045034
39.95 	0.050254 	4915 	0.049281
39.99 	0.050689 	4932 	0.049977
40.03 	0.043019 	4928 	0.042069
40.07 	0.043266 	4923 	0.043266
40.11 	0.042921 	4916 	0.042444
40.15 	0.042947 	4913 	0.042332
40.19 	0.047880 	4929 	0.046573
40.23 	0.044201 	4932 	0.043845
40.27 	0.045574 	4937 	0.044744
40.31 	0.050415 	4939 	0.049585
40.35 	0.041269 	4919 	0.040673
40.39 	0.043805 	4931 	0.043211
40.43 	0.042259 	4922 	0.041902
40.47 	0.045547 	4918 	0.044951
40.51 	0.041447 	4922 	0.041328
40.55 	0.042176 	4908 	0.041699
40.59 	0.047600 	4937 	0.046987
40.63 	0.039757 	4930 	0.039400
40.67 	0.043593 	4932 	0.042761
40.71 	0.046431 	4932 	0.046075
40.75 	0.040560 	4931 	0.039966
40.79 	0.042445 	4924 	0.042207
40.83 	0.038555 	4928 	0.037723
40.87 	0.041599 	4928 	0.041124
40.91 	0.043266 	4923 	0.043028
40.95 	0.042744 	4913 	0.042028
40.99 	0.038790 	4924 	0.038671
41.03 	0.042610 	4905 	0.042132
41.07 	0.038945 	4930 	0.038470
41.11 	0.041135 	4935 	0.041016
41.15 	0.039668 	4941 	0.039194
41.19 	0.040568 	4930 	0.040093
41.23 	0.039684 	4939 	0.039328
41.27 	0.046035 	4931 	0.045323
41.31 	0.036894 	4933 	0.036894
41.35 	0.039490 	4938 	0.039015
41.39 	0.039530 	4933 	0.039173
41.43 	0.045445 	4929 	0.044613
41.47 	0.036338 	4926 	0.035743
41.51 	0.042510 	4940 	0.042036
41.55 	0.047214 	4935 	0.046383
41.59 	0.042773 	4933 	0.042279
41.63 	0.038275 	4938 	0.038037
41.67 	0.041700 	4940 	0.040752
41.71 	0.040332 	4934 	0.039976
41.75 	0.037939 	4929 	0.037582
41.79 	0.043689 	4944 	0.043334
41.83 	0.042208 	4928 	0.041613
41.87 	0.034245 	4935 	0.034008
41.91 	0.038898 	4936 	0.038186
41.95 	0.042182 	4931 	0.041569
41.99 	0.033435 	4905 	0.033316
42.03 	0.039279 	4939 	0.038686
42.07 	0.041523 	4937 	0.041049
42.11 	0.034783 	4945 	0.034427
42.15 	0.035439 	4938 	0.034965
42.19 	0.038916 	4908 	0.038439
42.23 	0.040883 	4892 	0.040284
42.27 	0.039598 	4874 	0.038997
42.31 	0.035427 	4855 	0.034703
42.35 	0.038239 	4838 	0.037997
42.39 	0.036012 	4804 	0.035768
42.43 	0.037145 	4792 	0.037023
42.47 	0.040294 	4765 	0.039802
42.51 	0.036053 	4743 	0.035683
42.55 	0.046092 	4708 	0.045594
42.59 	0.039543 	4729 	0.039296
42.63 	0.038649 	4709 	0.038027
42.67 	0.041418 	4684 	0.041042
42.71 	0.039460 	4663 	0.039334
42.75 	0.038337 	4617 	0.037702
42.79 	0.036447 	4582 	0.036063
42.83 	0.043210 	4536 	0.042156
42.87 	0.038675 	4499 	0.038154
42.91 	0.038600 	4456 	0.038468
42.95 	0.037817 	4416 	0.037286
42.99 	0.039681 	4385 	0.039280
43.03 	0.035772 	4333 	0.035502
43.07 	0.031890 	4296 	0.031617
43.11 	0.038073 	4255 	0.037522
43.15 	0.041132 	4206 	0.040714
43.19 	0.038388 	4194 	0.037969
43.23 	0.037795 	4154 	0.037513
43.27 	0.043362 	4105 	0.043076
43.31 	0.033342 	4079 	0.033198
43.35 	0.041419 	4032 	0.040838
43.39 	0.041729 	4002 	0.041144
43.43 	0.041667 	3960 	0.041223
43.47 	0.042081 	3921 	0.042081
43.51 	0.036368 	3877 	0.035764
43.55 	0.031039 	2964 	0.030842
43.59 	0.033219 	1746 	0.032212
43.63 	0.038961 	1001 	0.038376
43.67 	0.025896 	502 	0.025896
43.71 	0.046025 	239 	0.046025
43.75 	0.000000 	16 	0.000000

File: 25SC_s1_0040.001.dat
#F C:\frames\spec\25SC_s1_0040.001
#C title =s:40 frm:1 25SC_s1
#C wavelength =0.15406

#S 1  fr_average C:\frames\spec\25SC_s1_0040.001 C:\win32app\speccom\mask.axs chi 0 180 0 360 0.02
#C 2 theta =0.000000 to 180 deg
#C   q   =0.000000 to 81.568 nm^-1
#C  chi  =0.000000 to 360 deg
#C collumns:
#C  1 position (2theta or chi in degrees)
#C  2 average intensity (sum of all counts in the region divided with number of pixels)
#C  3 Number of pixels in region)
#C  4 error (sum of sqrt(intensity) for all pixels divided by number)
#N 4
#L TTh  Int  N_pix  Err
32.99 	0.081967 	61 	0.081967
33.03 	0.059669 	1391 	0.057985
33.07 	0.054146 	2050 	0.054146
33.11 	0.064754 	2579 	0.062899
33.15 	0.054685 	2999 	0.053122
33.19 	0.055057 	3342 	0.054005
33.23 	0.055634 	3523 	0.055302
33.27 	0.059229 	3630 	0.058260
33.31 	0.057923 	3660 	0.056643
33.35 	0.060097 	3694 	0.058644
33.39 	0.061947 	3729 	0.060376
33.43 	0.053975 	3761 	0.053352
33.47 	0.057925 	3798 	0.057000
33.51 	0.055046 	3815 	0.054585
33.55 	0.059068 	3843 	0.058001
33.59 	0.062629 	3880 	0.061421
33.63 	0.058178 	3919 	0.057580
33.67 	0.059181 	3954 	0.058440
33.71 	0.059371 	3975 	0.058339
33.75 	0.060265 	3999 	0.059826
33.79 	0.056422 	4041 	0.055407
33.83 	0.054321 	4050 	0.053742
33.87 	0.055704 	4111 	0.055134
33.91 	0.063630 	4149 	0.062759
33.95 	0.058838 	4181 	0.058137
33.99 	0.056429 	4200 	0.055731
34.03 	0.054194 	4244 	0.053067
34.07 	0.056232 	4268 	0.055409
34.11 	0.057648 	4302 	0.056694
34.15 	0.058647 	4331 	0.057430
34.19 	0.059376 	4362 	0.058839
34.23 	0.060779 	4393 	0.059712
34.27 	0.062641 	4422 	0.061317
34.31 	0.058098 	4458 	0.057572
34.35 	0.060437 	4484 	0.059480
34.39 	0.062639 	4502 	0.061468
34.43 	0.054858 	4539 	0.054084
34.47 	0.056838 	4592 	0.056073
34.51 	0.051455 	4606 	0.050946
34.55 	0.053414 	4643 	0.052404
34.59 	0.060535 	4675 	0.059783
34.63 	0.052017 	4710 	0.051271
34.67 	0.054841 	4741 	0.054347
34.71 	0.057071 	4766 	0.056579
34.75 	0.051165 	4808 	0.050414
34.79 	0.061153 	4824 	0.059938
34.83 	0.055121 	4862 	0.054398
34.87 	0.055875 	4868 	0.054792
34.91 	0.054281 	4882 	0.053321
34.95 	0.050920 	4890 	0.050561
34.99 	0.054727 	4897 	0.053651
35.03 	0.057860 	4943 	0.056675
35.07 	0.056073 	4940 	0.055480
35.11 	0.051749 	4947 	0.050427
35.15 	0.055094 	4937 	0.054007
35.19 	0.051801 	4942 	0.051208
35.23 	0.056016 	4945 	0.054812
35.27 	0.061641 	4948 	0.060457
35.31 	0.053720 	4933 	0.053245
35.35 	0.054836 	4942 	0.054006
35.39 	0.060667 	4945 	0.059364
35.43 	0.057166 	4933 	0.056335
35.47 	0.051916 	4931 	0.051322
35.51 	0.052172 	4926 	0.051221
35.55 	0.056218 	4945 	0.055034
35.59 	0.051365 	4945 	0.050773
35.63 	0.047947 	4943 	0.047710
35.67 	0.060502 	4942 	0.059079
35.71 	0.056309 	4937 	0.055954
35.75 	0.055770 	4931 	0.054463
35.79 	0.054339 	4932 	0.053270
35.83 	0.051961 	4946 	0.050994
35.87 	0.050173 	4923 	0.049697
35.91 	0.049929 	4927 	0.049315
35.95 	0.057149 	4917 	0.056076
35.99 	0.060539 	4939 	0.059827
36.03 	0.053207 	4943 	0.052614
36.07 	0.054869 	4939 	0.053664
36.11 	0.052749 	4929 	0.051541
36.15 	0.056287 	4939 	0.055338
36.19 	0.056680 	4940 	0.056324
36.23 	0.053495 	4935 	0.052289
36.27 	0.058680 	4925 	0.057729
36.31 	0.054383 	4928 	0.053432
36.35 	0.056807 	4929 	0.055361
36.39 	0.058931 	4921 	0.057840
36.43 	0.054383 	4928 	0.053551
36.47 	0.056726 	4936 	0.055895
36.51 	0.055950 	4933 	0.055593
36.55 	0.055612 	4927 	0.054542
36.59 	0.056894 	4939 	0.056182
36.63 	0.061042 	4931 	0.059854
36.67 	0.056187 	4930 	0.055117
36.71 	0.059744 	4921 	0.059149
36.75 	0.056634 	4944 	0.055568
36.79 	0.055883 	4921 	0.055050
36.83 	0.054120 	4915 	0.053286
36.87 	0.058455 	4944 	0.057744
36.91 	0.053026 	4941 	0.052314
36.95 	0.056761 	4933 	0.055811
36.99 	0.054103 	4935 	0.053985
37.03 	0.053006 	4924 	0.052411
37.07 	0.055319 	4935 	0.054726
37.11 	0.057751 	4935 	0.056564
37.15 	0.056223 	4909 	0.055149
37.19 	0.054822 	4925 	0.054228
37.23 	0.057950 	4918 	0.057236
37.27 	0.060482 	4894 	0.059764
37.31 	0.053495 	4935 	0.053021
37.35 	0.056096 	4938 	0.055008
37.39 	0.052525 	4931 	0.051218
37.43 	0.053933 	4932 	0.053221
37.47 	0.054981 	4929 	0.053555
37.51 	0.045003 	4933 	0.044172
37.55 	0.048884 	4930 	0.048053
37.59 	0.056765 	4915 	0.055931
37.63 	0.055702 	4919 	0.054631
37.67 	0.056688 	4904 	0.055136
37.71 	0.054169 	4929 	0.053575
37.75 	0.054858 	4940 	0.053910
37.79 	0.051116 	4930 	0.050284
37.83 	0.061179 	4920 	0.060107
37.87 	0.050415 	4939 	0.049447
37.91 	0.055984 	4930 	0.055271
37.95 	0.058525 	4921 	0.057096
37.99 	0.052932 	4912 	0.052574
38.03 	0.054797 	4909 	0.054201
38.07 	0.054186 	4909 	0.052635
38.11 	0.051469 	4935 	0.050757
38.15 	0.061000 	4918 	0.060048
38.19 	0.058215 	4930 	0.057007
38.23 	0.057918 	4938 	0.057562
38.27 	0.066937 	4930 	0.065630
38.31 	0.067790 	4927 	0.065531
38.35 	0.071226 	4928 	0.069443
38.39 	0.068242 	4909 	0.066452
38.43 	0.072417 	4916 	0.071344
38.47 	0.071938 	4907 	0.070725
38.51 	0.071168 	4932 	0.069961
38.55 	0.073541 	4936 	0.072355
38.59 	0.074330 	4924 	0.072764
38.63 	0.065597 	4924 	0.064526
38.67 	0.061171 	4937 	0.059253
38.71 	0.059708 	4924 	0.058637
38.75 	0.054191 	4927 	0.052983
38.79 	0.061005 	4934 	0.059798
38.83 	0.057532 	4919 	0.056460
38.87 	0.051517 	4911 	0.051040
38.91 	0.051805 	4903 	0.050491
38.95 	0.042904 	4918 	0.042427
38.99 	0.049423 	4937 	0.048929
39.03 	0.048034 	4934 	0.046966
39.07 	0.050366 	4924 	0.049890
39.11 	0.052728 	4931 	0.051540
39.15 	0.047406 	4915 	0.047048
39.19 	0.045963 	4917 	0.045248
39.23 	0.038782 	4925 	0.038782
39.27 	0.044196 	4910 	0.043480
39.31 	0.046478 	4884 	0.045639
39.35 	0.049037 	4935 	0.048424
39.39 	0.047068 	4929 	0.047068
39.43 	0.044192 	4933 	0.043717
39.47 	0.042454 	4923 	0.041978
39.51 	0.046304 	4924 	0.045590
39.55 	0.050010 	4919 	0.049653
39.59 	0.040106 	4912 	0.039390
39.63 	0.051808 	4922 	0.051094
39.67 	0.045186 	4913 	0.044948
39.71 	0.042288 	4895 	0.042168
39.75 	0.047281 	4928 	0.046924
39.79 	0.048315 	4926 	0.047720
39.83 	0.040738 	4934 	0.040144
39.87 	0.044670 	4925 	0.044075
39.91 	0.039212 	4922 	0.038855
39.95 	0.045168 	4915 	0.044334
39.99 	0.043593 	4932 	0.043474
40.03 	0.041193 	4928 	0.040599
40.07 	0.045298 	4923 	0.044822
40.11 	0.041090 	4916 	0.040495
40.15 	0.039284 	4913 	0.039045
40.19 	0.038547 	4929 	0.038191
40.23 	0.038524 	4932 	0.038286
40.27 	0.039295 	4937 	0.039176
40.31 	0.043734 	4939 	0.043141
40.35 	0.043098 	4919 	0.042741
40.39 	0.040560 	4931 	0.040441
40.43 	0.042462 	4922 	0.041986
40.47 	0.045750 	4918 	0.045036
40.51 	0.038196 	4922 	0.037601
40.55 	0.040546 	4908 	0.040188
40.59 	0.040713 	4937 	0.039764
40.63 	0.042596 	4930 	0.041626
40.67 	0.041768 	4932 	0.041055
40.71 	0.042782 	4932 	0.042188
40.75 	0.038532 	4931 	0.037938
40.79 	0.041633 	4924 	0.041633
40.83 	0.041193 	4928 	0.040480
40.87 	0.045455 	4928 	0.045217
40.91 	0.041235 	4923 	0.040878
40.95 	0.041726 	4913 	0.041488
40.99 	0.037165 	4924 	0.036689
41.03 	0.037513 	4905 	0.036896
41.07 	0.040974 	4930 	0.040261
41.11 	0.039919 	4935 	0.038712
41.15 	0.039466 	4941 	0.038991
41.19 	0.040771 	4930 	0.040414
41.23 	0.038469 	4939 	0.037876
41.27 	0.042385 	4931 	0.041910
41.31 	0.039124 	4933 	0.039006
41.35 	0.038072 	4938 	0.037598
41.39 	0.042165 	4933 	0.041928
41.43 	0.038547 	4929 	0.037953
41.47 	0.043240 	4926 	0.043002
41.51 	0.041498 	4940 	0.040905
41.55 	0.044580 	4935 	0.044105
41.59 	0.041760 	4933 	0.041047
41.63 	0.036655 	4938 	0.036417
41.67 	0.041700 	4940 	0.041226
41.71 	0.040535 	4934 	0.039941
41.75 	0.040576 	4929 	0.040457
41.79 	0.038026 	4944 	0.037433
41.83 	0.043222 	4928 	0.042747
41.87 	0.035461 	4935 	0.035105
41.91 	0.035454 	4936 	0.035335
41.95 	0.040357 	4931 	0.040001
41.99 	0.041386 	4905 	0.041028
42.03 	0.036647 	4939 	0.036528
42.07 	0.041321 	4937 	0.040609
42.11 	0.042063 	4945 	0.041589
42.15 	0.043135 	4938 	0.042660
42.19 	0.038101 	4908 	0.037624
42.23 	0.037817 	4892 	0.037458
42.27 	0.038162 	4874 	0.037681
42.31 	0.039135 	4855 	0.038894
42.35 	0.039272 	4838 	0.038667
42.39 	0.038718 	4804 	0.037864
42.43 	0.034015 	4792 	0.033771
42.47 	0.035677 	4765 	0.035431
42.51 	0.033945 	4743 	0.033698
42.55 	0.042268 	4708 	0.042020
42.59 	0.038486 	4729 	0.038362
42.63 	0.037375 	4709 	0.036629
42.67 	0.034372 	4684 	0.033872
42.71 	0.033026 	4663 	0.032649
42.75 	0.037903 	4617 	0.037650
42.79 	0.034919 	4582 	0.034664
42.83 	0.038580 	4536 	0.037418
42.87 	0.035341 	4499 	0.034690
42.91 	0.042864 	4456 	0.042601
42.95 	0.035779 	4416 	0.035646
42.99 	0.033295 	4385 	0.033295
43.03 	0.040388 	4333 	0.039982
43.07 	0.035382 	4296 	0.034973
43.11 	0.041128 	4255 	0.040853
43.15 	0.037803 	4206 	0.037385
43.19 	0.043634 	4194 	0.043075
43.23 	0.032499 	4154 	0.032358
43.27 	0.042631 	4105 	0.042203
43.31 	0.044128 	4079 	0.043554
43.35 	0.033234 	4032 	0.032944
43.39 	0.036482 	4002 	0.036335
43.43 	0.036869 	3960 	0.036573
43.47 	0.035705 	3921 	0.035257
43.51 	0.041269 	3877 	0.040816
43.55 	0.037449 	2964 	0.036461
43.59 	0.039519 	1746 	0.038177
43.63 	0.023976 	1001 	0.023976
43.67 	0.045817 	502 	0.044650
43.71 	0.054393 	239 	0.054393
43.75 	0.000000 	16 	0.000000