Folder: Bessy-II-KMC-II-insitu-sin2psi/Example_Data (part 60)

File: 25SC_s1_0024.002.dat
#F C:\frames\spec\25SC_s1_0024.002
#C title =s:24 frm:2 25SC_s1
#C wavelength =0.15406

#S 1  fr_average C:\frames\spec\25SC_s1_0024.002 C:\win32app\speccom\mask.axs chi 0 180 0 360 0.02
#C 2 theta =0.000000 to 180 deg
#C   q   =0.000000 to 81.568 nm^-1
#C  chi  =0.000000 to 360 deg
#C collumns:
#C  1 position (2theta or chi in degrees)
#C  2 average intensity (sum of all counts in the region divided with number of pixels)
#C  3 Number of pixels in region)
#C  4 error (sum of sqrt(intensity) for all pixels divided by number)
#N 4
#L TTh  Int  N_pix  Err
32.99 	0.098361 	61 	0.098361
33.03 	0.058231 	1391 	0.057389
33.07 	0.058537 	2050 	0.057679
33.11 	0.049632 	2579 	0.048723
33.15 	0.063688 	2999 	0.062711
33.19 	0.061341 	3342 	0.060289
33.23 	0.055067 	3523 	0.053404
33.27 	0.058953 	3630 	0.057797
33.31 	0.055191 	3660 	0.054231
33.35 	0.059285 	3694 	0.057515
33.39 	0.063824 	3729 	0.063039
33.43 	0.061952 	3761 	0.061484
33.47 	0.054502 	3798 	0.053397
33.51 	0.061861 	3815 	0.060479
33.55 	0.065053 	3843 	0.063681
33.59 	0.051546 	3880 	0.050339
33.63 	0.057923 	3919 	0.056727
33.67 	0.057663 	3954 	0.056922
33.71 	0.061132 	3975 	0.060395
33.75 	0.063516 	3999 	0.062051
33.79 	0.057412 	4041 	0.056542
33.83 	0.062963 	4050 	0.061782
33.87 	0.064461 	4111 	0.063464
33.91 	0.057363 	4149 	0.056093
33.95 	0.060990 	4181 	0.059286
33.99 	0.055952 	4200 	0.055673
34.03 	0.053959 	4244 	0.052832
34.07 	0.055295 	4268 	0.054883
34.11 	0.058810 	4302 	0.057312
34.15 	0.051720 	4331 	0.051044
34.19 	0.056167 	4362 	0.055764
34.23 	0.058275 	4393 	0.057074
34.27 	0.057214 	4422 	0.056684
34.31 	0.054509 	4458 	0.053458
34.35 	0.058653 	4484 	0.057216
34.39 	0.055753 	4502 	0.054691
34.43 	0.059264 	4539 	0.058361
34.47 	0.060758 	4592 	0.059865
34.51 	0.058836 	4606 	0.058200
34.55 	0.055352 	4643 	0.054974
34.59 	0.060963 	4675 	0.059960
34.63 	0.054352 	4710 	0.053979
34.67 	0.052942 	4741 	0.051830
34.71 	0.054763 	4766 	0.054148
34.75 	0.057820 	4808 	0.057211
34.79 	0.061567 	4824 	0.060090
34.83 	0.057384 	4862 	0.056299
34.87 	0.059162 	4868 	0.058320
34.91 	0.061245 	4882 	0.060405
34.95 	0.054806 	4890 	0.053847
34.99 	0.059220 	4897 	0.057784
35.03 	0.055634 	4943 	0.054805
35.07 	0.061336 	4940 	0.059794
35.11 	0.062058 	4947 	0.060637
35.15 	0.049625 	4937 	0.048795
35.19 	0.054634 	4942 	0.053330
35.23 	0.053387 	4945 	0.052746
35.27 	0.062045 	4948 	0.061217
35.31 	0.056761 	4933 	0.055573
35.35 	0.057871 	4942 	0.056923
35.39 	0.057432 	4945 	0.056958
35.43 	0.054125 	4933 	0.053532
35.47 	0.053742 	4931 	0.052910
35.51 	0.055217 	4926 	0.054504
35.55 	0.059454 	4945 	0.057796
35.59 	0.056825 	4945 	0.055640
35.63 	0.059883 	4943 	0.059034
35.67 	0.057669 	4942 	0.056346
35.71 	0.056309 	4937 	0.055954
35.75 	0.055770 	4931 	0.054582
35.79 	0.060624 	4932 	0.059912
35.83 	0.056814 	4946 	0.056221
35.87 	0.054032 	4923 	0.052961
35.91 	0.061295 	4927 	0.060582
35.95 	0.061420 	4917 	0.060347
35.99 	0.059324 	4939 	0.058494
36.03 	0.060287 	4943 	0.059458
36.07 	0.057299 	4939 	0.057062
36.11 	0.063096 	4929 	0.061650
36.15 	0.061956 	4939 	0.060888
36.19 	0.053644 	4940 	0.052577
36.23 	0.056738 	4935 	0.055669
36.27 	0.058680 	4925 	0.057372
36.31 	0.057427 	4928 	0.055862
36.35 	0.055589 	4929 	0.054163
36.39 	0.062589 	4921 	0.061994
36.43 	0.064529 	4928 	0.063816
36.47 	0.052472 	4936 	0.051760
36.51 	0.057369 	4933 	0.056419
36.55 	0.057439 	4927 	0.056606
36.59 	0.061146 	4939 	0.060079
36.63 	0.056581 	4931 	0.055036
36.67 	0.059432 	4930 	0.058600
36.71 	0.055680 	4921 	0.055323
36.75 	0.057241 	4944 	0.055306
36.79 	0.056086 	4921 	0.055015
36.83 	0.059207 	4915 	0.058849
36.87 	0.052184 	4944 	0.051474
36.91 	0.057276 	4941 	0.056090
36.95 	0.059396 	4933 	0.058208
36.99 	0.051064 	4935 	0.050708
37.03 	0.052600 	4924 	0.051886
37.07 	0.057751 	4935 	0.056445
37.11 	0.055522 	4935 	0.054572
37.15 	0.051131 	4909 	0.050653
37.19 	0.054010 	4925 	0.052821
37.23 	0.052867 	4918 	0.051319
37.27 	0.051900 	4894 	0.051043
37.31 	0.054914 	4935 	0.054439
37.35 	0.055488 	4938 	0.054539
37.39 	0.053944 	4931 	0.052994
37.43 	0.048662 	4932 	0.047949
37.47 	0.058227 	4929 	0.057157
37.51 	0.053517 	4933 	0.052310
37.55 	0.053753 	4930 	0.053040
37.59 	0.053306 	4915 	0.052472
37.63 	0.052043 	4919 	0.051209
37.67 	0.054445 	4904 	0.053251
37.71 	0.057415 	4929 	0.056227
37.75 	0.054656 	4940 	0.053351
37.79 	0.052738 	4930 	0.051907
37.83 	0.052236 	4920 	0.051045
37.87 	0.050010 	4939 	0.049773
37.91 	0.051724 	4930 	0.050892
37.95 	0.059947 	4921 	0.058995
37.99 	0.058632 	4912 	0.058036
38.03 	0.052557 	4909 	0.051841
38.07 	0.052760 	4909 	0.052283
38.11 	0.055522 	4935 	0.054453
38.15 	0.050630 	4918 	0.050035
38.19 	0.056187 	4930 	0.055355
38.23 	0.055286 	4938 	0.054218
38.27 	0.060243 	4930 	0.058936
38.31 	0.059062 	4927 	0.057517
38.35 	0.062500 	4928 	0.062143
38.39 	0.058057 	4909 	0.056505
38.43 	0.061432 	4916 	0.060598
38.47 	0.063583 	4907 	0.062369
38.51 	0.060422 	4932 	0.058996
38.55 	0.067261 	4936 	0.065718
38.59 	0.063363 	4924 	0.062530
38.63 	0.062754 	4924 	0.061802
38.67 	0.059145 	4937 	0.057346
38.71 	0.062145 	4924 	0.061431
38.75 	0.054191 	4927 	0.053002
38.79 	0.061613 	4934 	0.060288
38.83 	0.057532 	4919 	0.056937
38.87 	0.051517 	4911 	0.050563
38.91 	0.050173 	4903 	0.049934
38.95 	0.051240 	4918 	0.049672
38.99 	0.049625 	4937 	0.048913
39.03 	0.048845 	4934 	0.048132
39.07 	0.048538 	4924 	0.047705
39.11 	0.044210 	4931 	0.043616
39.15 	0.049847 	4915 	0.048894
39.19 	0.048607 	4917 	0.048369
39.23 	0.046497 	4925 	0.046260
39.27 	0.048269 	4910 	0.047553
39.31 	0.043202 	4884 	0.042483
39.35 	0.044782 	4935 	0.043714
39.39 	0.043214 	4929 	0.042025
39.43 	0.047436 	4933 	0.046604
39.47 	0.040829 	4923 	0.040353
39.51 	0.049553 	4924 	0.049434
39.55 	0.045944 	4919 	0.045587
39.59 	0.044992 	4912 	0.044634
39.63 	0.046526 	4922 	0.045931
39.67 	0.048850 	4913 	0.048492
39.71 	0.044944 	4895 	0.044345
39.75 	0.045252 	4928 	0.044301
39.79 	0.047909 	4926 	0.047196
39.83 	0.046210 	4934 	0.045379
39.87 	0.049949 	4925 	0.049117
39.91 	0.044697 	4922 	0.044459
39.95 	0.048016 	4915 	0.047659
39.99 	0.049473 	4932 	0.048641
40.03 	0.048093 	4928 	0.047736
40.07 	0.043876 	4923 	0.043638
40.11 	0.044345 	4916 	0.043868
40.15 	0.043761 	4913 	0.042669
40.19 	0.045648 	4929 	0.045173
40.23 	0.041768 	4932 	0.040937
40.27 	0.044764 	4937 	0.044289
40.31 	0.042924 	4939 	0.042449
40.35 	0.043301 	4919 	0.042944
40.39 	0.048063 	4931 	0.047469
40.43 	0.046323 	4922 	0.045609
40.47 	0.050224 	4918 	0.049628
40.51 	0.042259 	4922 	0.041188
40.55 	0.041769 	4908 	0.041291
40.59 	0.042739 	4937 	0.042145
40.63 	0.047465 	4930 	0.046257
40.67 	0.045012 	4932 	0.044537
40.71 	0.047648 	4932 	0.046935
40.75 	0.041168 	4931 	0.041049
40.79 	0.041024 	4924 	0.040667
40.83 	0.045657 	4928 	0.044944
40.87 	0.047484 	4928 	0.047127
40.91 	0.043063 	4923 	0.042587
40.95 	0.046815 	4913 	0.045622
40.99 	0.042242 	4924 	0.042004
41.03 	0.044037 	4905 	0.043440
41.07 	0.044625 	4930 	0.044149
41.11 	0.041743 	4935 	0.041268
41.15 	0.039061 	4941 	0.038468
41.19 	0.043002 	4930 	0.042646
41.23 	0.040899 	4939 	0.040899
41.27 	0.039951 	4931 	0.039239
41.31 	0.037097 	4933 	0.036741
41.35 	0.043135 	4938 	0.042542
41.39 	0.041557 	4933 	0.040963
41.43 	0.041388 	4929 	0.041031
41.47 	0.038774 	4926 	0.038179
41.51 	0.041296 	4940 	0.040821
41.55 	0.039514 	4935 	0.039158
41.59 	0.039732 	4933 	0.039376
41.63 	0.041312 	4938 	0.040838
41.67 	0.037652 	4940 	0.037296
41.71 	0.044183 	4934 	0.043471
41.75 	0.039765 	4929 	0.039052
41.79 	0.045105 	4944 	0.044019
41.83 	0.041193 	4928 	0.040955
41.87 	0.043566 	4935 	0.042597
41.91 	0.040924 	4936 	0.040449
41.95 	0.038735 	4931 	0.038497
41.99 	0.041590 	4905 	0.040874
42.03 	0.041709 	4939 	0.041353
42.07 	0.036257 	4937 	0.036138
42.11 	0.040040 	4945 	0.039448
42.15 	0.042932 	4938 	0.042339
42.19 	0.035249 	4908 	0.035010
42.23 	0.035364 	4892 	0.035124
42.27 	0.040624 	4874 	0.039302
42.31 	0.037281 	4855 	0.036678
42.35 	0.036999 	4838 	0.036757
42.39 	0.038093 	4804 	0.037971
42.43 	0.040067 	4792 	0.039578
42.47 	0.035257 	4765 	0.034888
42.51 	0.038372 	4743 	0.037878
42.55 	0.039720 	4708 	0.039471
42.59 	0.034468 	4729 	0.033973
42.63 	0.039074 	4709 	0.038452
42.67 	0.036721 	4684 	0.036346
42.71 	0.042033 	4663 	0.041656
42.75 	0.034221 	4617 	0.034094
42.79 	0.041903 	4582 	0.041775
42.83 	0.039021 	4536 	0.039021
42.87 	0.038231 	4499 	0.037970
42.91 	0.037478 	4456 	0.037193
42.95 	0.040534 	4416 	0.039739
42.99 	0.042645 	4385 	0.041977
43.03 	0.035772 	4333 	0.034939
43.07 	0.036778 	4296 	0.036506
43.11 	0.044888 	4255 	0.044751
43.15 	0.039705 	4206 	0.039427
43.19 	0.040534 	4194 	0.039975
43.23 	0.037313 	4154 	0.036749
43.27 	0.031425 	4105 	0.030997
43.31 	0.038000 	4079 	0.037856
43.35 	0.031994 	4032 	0.031849
43.39 	0.037981 	4002 	0.037688
43.43 	0.039394 	3960 	0.038802
43.47 	0.039531 	3921 	0.038933
43.51 	0.038432 	3877 	0.038130
43.55 	0.039811 	2964 	0.039416
43.59 	0.039519 	1746 	0.039183
43.63 	0.031968 	1001 	0.031968
43.67 	0.035857 	502 	0.035857
43.71 	0.025105 	239 	0.025105
43.75 	0.062500 	16 	0.062500

File: 25SC_s1_0024.003.dat
#F C:\frames\spec\25SC_s1_0024.003
#C title =s:24 frm:3 25SC_s1
#C wavelength =0.15406

#S 1  fr_average C:\frames\spec\25SC_s1_0024.003 C:\win32app\speccom\mask.axs chi 0 180 0 360 0.02
#C 2 theta =0.000000 to 180 deg
#C   q   =0.000000 to 81.568 nm^-1
#C  chi  =0.000000 to 360 deg
#C collumns:
#C  1 position (2theta or chi in degrees)
#C  2 average intensity (sum of all counts in the region divided with number of pixels)
#C  3 Number of pixels in region)
#C  4 error (sum of sqrt(intensity) for all pixels divided by number)
#N 4
#L TTh  Int  N_pix  Err
32.99 	0.065574 	61 	0.065574
33.03 	0.058231 	1391 	0.057389
33.07 	0.067317 	2050 	0.065556
33.11 	0.057774 	2579 	0.056147
33.15 	0.058019 	2999 	0.057238
33.19 	0.067624 	3342 	0.066397
33.23 	0.055351 	3523 	0.054020
33.27 	0.061708 	3630 	0.060578
33.31 	0.064754 	3660 	0.063447
33.35 	0.063346 	3694 	0.062395
33.39 	0.057656 	3729 	0.056871
33.43 	0.057432 	3761 	0.056497
33.47 	0.057662 	3798 	0.056274
33.51 	0.070511 	3815 	0.069436
33.55 	0.060890 	3843 	0.060255
33.59 	0.061340 	3880 	0.060283
33.63 	0.061750 	3919 	0.060555
33.67 	0.057916 	3954 	0.056855
33.71 	0.056101 	3975 	0.055806
33.75 	0.057764 	3999 	0.056007
33.79 	0.061123 	4041 	0.060109
33.83 	0.061728 	4050 	0.060716
33.87 	0.059110 	4111 	0.057827
33.91 	0.054471 	4149 	0.054330
33.95 	0.060512 	4181 	0.058971
33.99 	0.056905 	4200 	0.056486
34.03 	0.059142 	4244 	0.058590
34.07 	0.056232 	4268 	0.055958
34.11 	0.058113 	4302 	0.057137
34.15 	0.064881 	4331 	0.063664
34.19 	0.058459 	4362 	0.057654
34.23 	0.059413 	4393 	0.058879
34.27 	0.058571 	4422 	0.057643
34.31 	0.056752 	4458 	0.055569
34.35 	0.053301 	4484 	0.052647
34.39 	0.053754 	4502 	0.053494
34.43 	0.061908 	4539 	0.060488
34.47 	0.056620 	4592 	0.055982
34.51 	0.056665 	4606 	0.055521
34.55 	0.055568 	4643 	0.054916
34.59 	0.056257 	4675 	0.055254
34.63 	0.058174 	4710 	0.056682
34.67 	0.059270 	4741 	0.058652
34.71 	0.052875 	4766 	0.050990
34.75 	0.055116 	4808 	0.054264
34.79 	0.052239 	4824 	0.051510
34.83 	0.063554 	4862 	0.062470
34.87 	0.063887 	4868 	0.063044
34.91 	0.062474 	4882 	0.061874
34.95 	0.060123 	4890 	0.058326
34.99 	0.063100 	4897 	0.061884
35.03 	0.059276 	4943 	0.058091
35.07 	0.057895 	4940 	0.056571
35.11 	0.057004 	4947 	0.055702
35.15 	0.060563 	4937 	0.059258
35.19 	0.063537 	4942 	0.062470
35.23 	0.053589 	4945 	0.052642
35.27 	0.055376 	4948 	0.054310
35.31 	0.064261 	4933 	0.063192
35.35 	0.057871 	4942 	0.057279
35.39 	0.053994 	4945 	0.053283
35.43 	0.059193 	4933 	0.057749
35.47 	0.057189 	4931 	0.056714
35.51 	0.060495 	4926 	0.059425
35.55 	0.056623 	4945 	0.055675
35.59 	0.056016 	4945 	0.055898
35.63 	0.057050 	4943 	0.055727
35.67 	0.058478 	4942 	0.057293
35.71 	0.057525 	4937 	0.056457
35.75 	0.058406 	4931 	0.057693
35.79 	0.059813 	4932 	0.057894
35.83 	0.058835 	4946 	0.057967
35.87 	0.057485 	4923 	0.056771
35.91 	0.064542 	4927 	0.062997
35.95 	0.057555 	4917 	0.056583
35.99 	0.059729 	4939 	0.058543
36.03 	0.058669 	4943 	0.057721
36.07 	0.056287 	4939 	0.054389
36.11 	0.056807 	4929 	0.055975
36.15 	0.061146 	4939 	0.060079
36.19 	0.055870 	4940 	0.055159
36.23 	0.055927 	4935 	0.055452
36.27 	0.052589 	4925 	0.051280
36.31 	0.050325 	4928 	0.049730
36.35 	0.055184 	4929 	0.053876
36.39 	0.058321 	4921 	0.057112
36.43 	0.057021 	4928 	0.056070
36.47 	0.058955 	4936 	0.057887
36.51 	0.054531 	4933 	0.053224
36.55 	0.052973 	4927 	0.052141
36.59 	0.053250 	4939 	0.052657
36.63 	0.062868 	4931 	0.062155
36.67 	0.059635 	4930 	0.058447
36.71 	0.050396 	4921 	0.049563
36.75 	0.055825 	4944 	0.054759
36.79 	0.051616 	4921 	0.050663
36.83 	0.056562 	4915 	0.055608
36.87 	0.054005 	4944 	0.052564
36.91 	0.057883 	4941 	0.056797
36.95 	0.052706 	4933 	0.052469
36.99 	0.053090 	4935 	0.051903
37.03 	0.051787 	4924 	0.051073
37.07 	0.052280 	4935 	0.050954
37.11 	0.046403 	4935 	0.045810
37.15 	0.055612 	4909 	0.054777
37.19 	0.051777 	4925 	0.051539
37.23 	0.054087 	4918 	0.052896
37.27 	0.047609 	4894 	0.046771
37.31 	0.052685 	4935 	0.051735
37.35 	0.053463 	4938 	0.052514
37.39 	0.051714 	4931 	0.051357
37.43 	0.052109 	4932 	0.051515
37.47 	0.054169 	4929 	0.053694
37.51 	0.051693 	4933 	0.050980
37.55 	0.052333 	4930 	0.051857
37.59 	0.054323 	4915 	0.053489
37.63 	0.047367 	4919 	0.046653
37.67 	0.044454 	4904 	0.043259
37.71 	0.053966 	4929 	0.052639
37.75 	0.053036 	4940 	0.052444
37.79 	0.052941 	4930 	0.052109
37.83 	0.054878 	4920 	0.054025
37.87 	0.052035 	4939 	0.051205
37.91 	0.047667 	4930 	0.046717
37.95 	0.052632 	4921 	0.051917
37.99 	0.055782 	4912 	0.054828
38.03 	0.047464 	4909 	0.046987
38.07 	0.054390 	4909 	0.053197
38.11 	0.049443 	4935 	0.048711
38.15 	0.060594 	4918 	0.059641
38.19 	0.055984 	4930 	0.055033
38.23 	0.052653 	4938 	0.051941
38.27 	0.054767 	4930 	0.053440
38.31 	0.054394 	4927 	0.053443
38.35 	0.059050 	4928 	0.058337
38.39 	0.063353 	4909 	0.062498
38.43 	0.061635 	4916 	0.060682
38.47 	0.061749 	4907 	0.060794
38.51 	0.063058 	4932 	0.061632
38.55 	0.060778 	4936 	0.060422
38.59 	0.056458 	4924 	0.055269
38.63 	0.057474 	4924 	0.056284
38.67 	0.046587 	4937 	0.045519
38.71 	0.056661 	4924 	0.055472
38.75 	0.047290 	4927 	0.046458
38.79 	0.046818 	4934 	0.045987
38.83 	0.050620 	4919 	0.049906
38.87 	0.050092 	4911 	0.049734
38.91 	0.052009 	4903 	0.051412
38.95 	0.050630 	4918 	0.050392
38.99 	0.049828 	4937 	0.049116
39.03 	0.051480 	4934 	0.050767
39.07 	0.049756 	4924 	0.048805
39.11 	0.050902 	4931 	0.050427
39.15 	0.048016 	4915 	0.047401
39.19 	0.048607 	4917 	0.048130
39.23 	0.049340 	4925 	0.048508
39.27 	0.045621 	4910 	0.045144
39.31 	0.051597 	4884 	0.050877
39.35 	0.047416 	4935 	0.047179
39.39 	0.048691 	4929 	0.048573
39.43 	0.050476 	4933 	0.049408
39.47 	0.047938 	4923 	0.047224
39.51 	0.049553 	4924 	0.049315
39.55 	0.045334 	4919 	0.044977
39.59 	0.044178 	4912 	0.043462
39.63 	0.045713 	4922 	0.045118
39.67 	0.050275 	4913 	0.049082
39.71 	0.049642 	4895 	0.048805
39.75 	0.047281 	4928 	0.046687
39.79 	0.050345 	4926 	0.049394
39.83 	0.048034 	4934 	0.047440
39.87 	0.047107 	4925 	0.046274
39.91 	0.048151 	4922 	0.047179
39.95 	0.048423 	4915 	0.047946
39.99 	0.048256 	4932 	0.047187
40.03 	0.050122 	4928 	0.048914
40.07 	0.047126 	4923 	0.046650
40.11 	0.045159 	4916 	0.044444
40.15 	0.046611 	4913 	0.045657
40.19 	0.046257 	4929 	0.046019
40.23 	0.048662 	4932 	0.048424
40.27 	0.049625 	4937 	0.049032
40.31 	0.044948 	4939 	0.044474
40.35 	0.047164 	4919 	0.045973
40.39 	0.044413 	4931 	0.043344
40.43 	0.043275 	4922 	0.042680
40.47 	0.049410 	4918 	0.048457
40.51 	0.052215 	4922 	0.051500
40.55 	0.043806 	4908 	0.043329
40.59 	0.043549 	4937 	0.042244
40.63 	0.043205 	4930 	0.042730
40.67 	0.041363 	4932 	0.040769
40.71 	0.049473 	4932 	0.048641
40.75 	0.040560 	4931 	0.040203
40.79 	0.040008 	4924 	0.039175
40.83 	0.042614 	4928 	0.041900
40.87 	0.050325 	4928 	0.049730
40.91 	0.046110 	4923 	0.045515
40.95 	0.045593 	4913 	0.044878
40.99 	0.042445 	4924 	0.042326
41.03 	0.044444 	4905 	0.044325
41.07 	0.041379 	4930 	0.040766
41.11 	0.045593 	4935 	0.045118
41.15 	0.042097 	4941 	0.041860
41.19 	0.043205 	4930 	0.042730
41.23 	0.042114 	4939 	0.041521
41.27 	0.046238 	4931 	0.044793
41.31 	0.041557 	4933 	0.041438
41.35 	0.043135 	4938 	0.042423
41.39 	0.042368 	4933 	0.041893
41.43 	0.040373 	4929 	0.039541
41.47 	0.043849 	4926 	0.043254
41.51 	0.042308 	4940 	0.041478
41.55 	0.041337 	4935 	0.041100
41.59 	0.040746 	4933 	0.040509
41.63 	0.043945 	4938 	0.043115
41.67 	0.040891 	4940 	0.040416
41.71 	0.042562 	4934 	0.042206
41.75 	0.039765 	4929 	0.039646
41.79 	0.044701 	4944 	0.044227
41.83 	0.042614 	4928 	0.042257
41.87 	0.048024 	4935 	0.046719
41.91 	0.039708 	4936 	0.039234
41.95 	0.046238 	4931 	0.045644
41.99 	0.045668 	4905 	0.045071
42.03 	0.044138 	4939 	0.043545
42.07 	0.039093 	4937 	0.038737
42.11 	0.039029 	4945 	0.038555
42.15 	0.046983 	4938 	0.046508
42.19 	0.044621 	4908 	0.044263
42.23 	0.039861 	4892 	0.039622
42.27 	0.040008 	4874 	0.039888
42.31 	0.043048 	4855 	0.042445
42.35 	0.039686 	4838 	0.039202
42.39 	0.037885 	4804 	0.037275
42.43 	0.045284 	4792 	0.044041
42.47 	0.043652 	4765 	0.042894
42.51 	0.041324 	4743 	0.040954
42.55 	0.043543 	4708 	0.042921
42.59 	0.044830 	4729 	0.043343
42.63 	0.039711 	4709 	0.039462
42.67 	0.040991 	4684 	0.040365
42.71 	0.037744 	4663 	0.037241
42.75 	0.034871 	4617 	0.034744
42.79 	0.038629 	4582 	0.038118
42.83 	0.046076 	4536 	0.045172
42.87 	0.043343 	4499 	0.043083
42.91 	0.042864 	4456 	0.042469
42.95 	0.034420 	4416 	0.034022
42.99 	0.043101 	4385 	0.042701
43.03 	0.042234 	4333 	0.041423
43.07 	0.040503 	4296 	0.040366
43.11 	0.042773 	4255 	0.041947
43.15 	0.038041 	4206 	0.037902
43.19 	0.039580 	4194 	0.039301
43.23 	0.042610 	4154 	0.041904
43.27 	0.042387 	4105 	0.041817
43.31 	0.036774 	4079 	0.036056
43.35 	0.039187 	4032 	0.038896
43.39 	0.044228 	4002 	0.043057
43.43 	0.039394 	3960 	0.038950
43.47 	0.036215 	3921 	0.035916
43.51 	0.045912 	3877 	0.045459
43.55 	0.042173 	2964 	0.041580
43.59 	0.044101 	1746 	0.043765
43.63 	0.048951 	1001 	0.048366
43.67 	0.021912 	502 	0.021912
43.71 	0.033473 	239 	0.033473
43.75 	0.062500 	16 	0.062500