Folder: Bessy-II-KMC-II-insitu-sin2psi/Example_Data (part 133)

File: 25SC_s1_0052.008.dat
#F C:\frames\spec\25SC_s1_0052.008
#C title =s:52 frm:8 25SC_s1
#C wavelength =0.15406

#S 1  fr_average C:\frames\spec\25SC_s1_0052.008 C:\win32app\speccom\mask.axs chi 0 180 0 360 0.02
#C 2 theta =0.000000 to 180 deg
#C   q   =0.000000 to 81.568 nm^-1
#C  chi  =0.000000 to 360 deg
#C collumns:
#C  1 position (2theta or chi in degrees)
#C  2 average intensity (sum of all counts in the region divided with number of pixels)
#C  3 Number of pixels in region)
#C  4 error (sum of sqrt(intensity) for all pixels divided by number)
#N 4
#L TTh  Int  N_pix  Err
32.99 	0.049180 	61 	0.049180
33.03 	0.076923 	1391 	0.076081
33.07 	0.072683 	2050 	0.071207
33.11 	0.074060 	2579 	0.072432
33.15 	0.077359 	2999 	0.075406
33.19 	0.066427 	3342 	0.065025
33.23 	0.070111 	3523 	0.068254
33.27 	0.069421 	3630 	0.067969
33.31 	0.070492 	3660 	0.069211
33.35 	0.072821 	3694 	0.071368
33.39 	0.070260 	3729 	0.068689
33.43 	0.061154 	3761 	0.060531
33.47 	0.069774 	3798 	0.068540
33.51 	0.071035 	3815 	0.069961
33.55 	0.076763 	3843 	0.074629
33.59 	0.067010 	3880 	0.065803
33.63 	0.073233 	3919 	0.072187
33.67 	0.063227 	3954 	0.062635
33.71 	0.071195 	3975 	0.069869
33.75 	0.072768 	3999 	0.071157
33.79 	0.071764 	4041 	0.070581
33.83 	0.066173 	4050 	0.064992
33.87 	0.067867 	4111 	0.066727
33.91 	0.066281 	4149 	0.065575
33.95 	0.066970 	4181 	0.065686
33.99 	0.070476 	4200 	0.068663
34.03 	0.068803 	4244 	0.066986
34.07 	0.066542 	4268 	0.065169
34.11 	0.068805 	4302 	0.067013
34.15 	0.060263 	4331 	0.059046
34.19 	0.073590 	4362 	0.072091
34.23 	0.066697 	4393 	0.065764
34.27 	0.069426 	4422 	0.068609
34.31 	0.073800 	4458 	0.071829
34.35 	0.072703 	4484 	0.071266
34.39 	0.064194 	4502 	0.063153
34.43 	0.077991 	4539 	0.076271
34.47 	0.065331 	4592 	0.063418
34.51 	0.071211 	4606 	0.069177
34.55 	0.079259 	4643 	0.077114
34.59 	0.066524 	4675 	0.065752
34.63 	0.068577 	4710 	0.067209
34.67 	0.070027 	4741 	0.068010
34.71 	0.079731 	4766 	0.078871
34.75 	0.070092 	4808 	0.068995
34.79 	0.068201 	4824 	0.066986
34.83 	0.068696 	4862 	0.067592
34.87 	0.072309 	4868 	0.070865
34.91 	0.068824 	4882 	0.067984
34.95 	0.074847 	4890 	0.072930
34.99 	0.069839 	4897 	0.068164
35.03 	0.067773 	4943 	0.066588
35.07 	0.077733 	4940 	0.076547
35.11 	0.066909 	4947 	0.066317
35.15 	0.070286 	4937 	0.069080
35.19 	0.076083 	4942 	0.074285
35.23 	0.068959 	4945 	0.067162
35.27 	0.068917 	4948 	0.068443
35.31 	0.073181 	4933 	0.071499
35.35 	0.070012 	4942 	0.069064
35.39 	0.069161 	4945 	0.067976
35.43 	0.071964 	4933 	0.070777
35.47 	0.066924 	4931 	0.065617
35.51 	0.063743 	4926 	0.062673
35.55 	0.064105 	4945 	0.062802
35.59 	0.064105 	4945 	0.062802
35.63 	0.071414 	4943 	0.070466
35.67 	0.068393 	4942 	0.066971
35.71 	0.068058 	4937 	0.066752
35.75 	0.075644 	4931 	0.073506
35.79 	0.064071 	4932 	0.063478
35.83 	0.065305 	4946 	0.063490
35.87 	0.069876 	4923 	0.068924
35.91 	0.068196 	4927 	0.066769
35.95 	0.065284 	4917 	0.063258
35.99 	0.067423 	4939 	0.065861
36.03 	0.063120 	4943 	0.062290
36.07 	0.062361 	4939 	0.061531
36.11 	0.058633 	4929 	0.057801
36.15 	0.073294 	4939 	0.071397
36.19 	0.070850 	4940 	0.069546
36.23 	0.070111 	4935 	0.068568
36.27 	0.075939 	4925 	0.074393
36.31 	0.064529 	4928 	0.063697
36.35 	0.063705 	4929 	0.062635
36.39 	0.070311 	4921 	0.069478
36.43 	0.065341 	4928 	0.064271
36.47 	0.061994 	4936 	0.061637
36.51 	0.069126 	4933 	0.067820
36.55 	0.069008 	4927 	0.067462
36.59 	0.065398 	4939 	0.063856
36.63 	0.061042 	4931 	0.059854
36.67 	0.070588 	4930 	0.069519
36.71 	0.069295 	4921 	0.067490
36.75 	0.066748 	4944 	0.065444
36.79 	0.073562 	4921 	0.071896
36.83 	0.067752 	4915 	0.066322
36.87 	0.067354 	4944 	0.066406
36.91 	0.074074 	4941 	0.072889
36.95 	0.062234 	4933 	0.061046
36.99 	0.063222 	4935 	0.061441
37.03 	0.063972 	4924 	0.062307
37.07 	0.069098 	4935 	0.067436
37.11 	0.063222 	4935 	0.062272
37.15 	0.070890 	4909 	0.068981
37.19 	0.060508 	4925 	0.059080
37.23 	0.062017 	4918 	0.061064
37.27 	0.063547 	4894 	0.062311
37.31 	0.064640 	4935 	0.063453
37.35 	0.068651 	4938 	0.066990
37.39 	0.059826 	4931 	0.058756
37.43 	0.062044 	4932 	0.061331
37.47 	0.065936 	4929 	0.064391
37.51 	0.066491 	4933 	0.065066
37.55 	0.064503 	4930 	0.063315
37.59 	0.068159 	4915 	0.067086
37.63 	0.062004 	4919 	0.060695
37.67 	0.068108 	4904 	0.066316
37.71 	0.066139 	4929 	0.064931
37.75 	0.062348 	4940 	0.061143
37.79 	0.060041 	4930 	0.058971
37.83 	0.064837 	4920 	0.063389
37.87 	0.063778 	4939 	0.062948
37.91 	0.060446 	4930 	0.059496
37.95 	0.062792 	4921 	0.061245
37.99 	0.064943 	4912 	0.064108
38.03 	0.066816 	4909 	0.065503
38.07 	0.060705 	4909 	0.059492
38.11 	0.063019 	4935 	0.062426
38.15 	0.069337 	4918 	0.067670
38.19 	0.068154 	4930 	0.066966
38.23 	0.061766 	4938 	0.060698
38.27 	0.068763 	4930 	0.066980
38.31 	0.057439 	4927 	0.056725
38.35 	0.075893 	4928 	0.074466
38.39 	0.067835 	4909 	0.066522
38.43 	0.067941 	4916 	0.066392
38.47 	0.071327 	4907 	0.069775
38.51 	0.076440 	4932 	0.074995
38.55 	0.068071 	4936 	0.067241
38.59 	0.068643 	4924 	0.067434
38.63 	0.071893 	4924 	0.069751
38.67 	0.073932 	4937 	0.072745
38.71 	0.068846 	4924 	0.067538
38.75 	0.071849 	4927 	0.070779
38.79 	0.062019 	4934 	0.061306
38.83 	0.060988 	4919 	0.059916
38.87 	0.065567 	4911 	0.064613
38.91 	0.062003 	4903 	0.060928
38.95 	0.064864 	4918 	0.063792
38.99 	0.059955 	4937 	0.059006
39.03 	0.058573 	4934 	0.057742
39.07 	0.064379 	4924 	0.063308
39.11 	0.060028 	4931 	0.059553
39.15 	0.056968 	4915 	0.055896
39.19 	0.064267 	4917 	0.062480
39.23 	0.060102 	4925 	0.058674
39.27 	0.060896 	4910 	0.059206
39.31 	0.061835 	4884 	0.061115
39.35 	0.059574 	4935 	0.058506
39.39 	0.060864 	4929 	0.059795
39.43 	0.064869 	4933 	0.063801
39.47 	0.056673 	4923 	0.055840
39.51 	0.067019 	4924 	0.064957
39.55 	0.065054 	4919 	0.064101
39.59 	0.057818 	4912 	0.057102
39.63 	0.062373 	4922 	0.061421
39.67 	0.060045 	4913 	0.058972
39.71 	0.057406 	4895 	0.056209
39.75 	0.058847 	4928 	0.058015
39.79 	0.054811 	4926 	0.054098
39.83 	0.064856 	4934 	0.063431
39.87 	0.065178 	4925 	0.064107
39.91 	0.060748 	4922 	0.059439
39.95 	0.059817 	4915 	0.058744
39.99 	0.060016 	4932 	0.059304
40.03 	0.052760 	4928 	0.051928
40.07 	0.057485 	4923 	0.056771
40.11 	0.063873 	4916 	0.063039
40.15 	0.061470 	4913 	0.060277
40.19 	0.053966 	4929 	0.052639
40.23 	0.060624 	4932 	0.058962
40.27 	0.068260 	4937 	0.066480
40.31 	0.063171 	4939 	0.062103
40.35 	0.055092 	4919 	0.054120
40.39 	0.062259 	4931 	0.060952
40.43 	0.059935 	4922 	0.058864
40.47 	0.054900 	4918 	0.054067
40.51 	0.061154 	4922 	0.060202
40.55 	0.058272 	4908 	0.056820
40.59 	0.062184 	4937 	0.060285
40.63 	0.051521 	4930 	0.050927
40.67 	0.052920 	4932 	0.052207
40.71 	0.054542 	4932 	0.053948
40.75 	0.054553 	4931 	0.053484
40.79 	0.053615 	4924 	0.052663
40.83 	0.061688 	4928 	0.060480
40.87 	0.057833 	4928 	0.056525
40.91 	0.061345 	4923 	0.060988
40.95 	0.058213 	4913 	0.057239
40.99 	0.061942 	4924 	0.060970
41.03 	0.057288 	4905 	0.056811
41.07 	0.058824 	4930 	0.057992
41.11 	0.056940 	4935 	0.056347
41.15 	0.059705 	4941 	0.058638
41.19 	0.055172 	4930 	0.054222
41.23 	0.052642 	4939 	0.052168
41.27 	0.053539 	4931 	0.052588
41.31 	0.057571 	4933 	0.056740
41.35 	0.055893 	4938 	0.055181
41.39 	0.060612 	4933 	0.059306
41.43 	0.052952 	4929 	0.051882
41.47 	0.057044 	4926 	0.055498
41.51 	0.055466 	4940 	0.055228
41.55 	0.050861 	4935 	0.050268
41.59 	0.052098 	4933 	0.050792
41.63 	0.048400 	4938 	0.048044
41.67 	0.054656 	4940 	0.054300
41.71 	0.051885 	4934 	0.051291
41.75 	0.056604 	4929 	0.055772
41.79 	0.052994 	4944 	0.051690
41.83 	0.054383 	4928 	0.054027
41.87 	0.058156 	4935 	0.057681
41.91 	0.050243 	4936 	0.049412
41.95 	0.057595 	4931 	0.056644
41.99 	0.046891 	4905 	0.046413
42.03 	0.056287 	4939 	0.055338
42.07 	0.054081 	4937 	0.053132
42.11 	0.052376 	4945 	0.051902
42.15 	0.053058 	4938 	0.052228
42.19 	0.056438 	4908 	0.055245
42.23 	0.051717 	4892 	0.050280
42.27 	0.051908 	4874 	0.051187
42.31 	0.058496 	4855 	0.057290
42.35 	0.048987 	4838 	0.048745
42.39 	0.050583 	4804 	0.049607
42.43 	0.057596 	4792 	0.056740
42.47 	0.053305 	4765 	0.053059
42.51 	0.048071 	4743 	0.047700
42.55 	0.052676 	4708 	0.051660
42.59 	0.057306 	4729 	0.056811
42.63 	0.051603 	4709 	0.050857
42.67 	0.053587 	4684 	0.052961
42.71 	0.048252 	4663 	0.047498
42.75 	0.051765 	4617 	0.051131
42.79 	0.054125 	4582 	0.053102
42.83 	0.050044 	4536 	0.049786
42.87 	0.057568 	4499 	0.056917
42.91 	0.054982 	4456 	0.054456
42.95 	0.054348 	4416 	0.053154
42.99 	0.044698 	4385 	0.044163
43.03 	0.051004 	4333 	0.050463
43.07 	0.058659 	4296 	0.057705
43.11 	0.053819 	4255 	0.052855
43.15 	0.048027 	4206 	0.047052
43.19 	0.056748 	4194 	0.056049
43.23 	0.050794 	4154 	0.050089
43.27 	0.046529 	4105 	0.046101
43.31 	0.047316 	4079 	0.046741
43.35 	0.051587 	4032 	0.050861
43.39 	0.047476 	4002 	0.046744
43.43 	0.054798 	3960 	0.054182
43.47 	0.047182 	3921 	0.046734
43.51 	0.052618 	3877 	0.051863
43.55 	0.050945 	2964 	0.050747
43.59 	0.056701 	1746 	0.056030
43.63 	0.052947 	1001 	0.052362
43.67 	0.045817 	502 	0.044650
43.71 	0.050209 	239 	0.050209
43.75 	0.125000 	16 	0.125000

File: 25SC_s1_0052.009.dat
#F C:\frames\spec\25SC_s1_0052.009
#C title =s:52 frm:9 25SC_s1
#C wavelength =0.15406

#S 1  fr_average C:\frames\spec\25SC_s1_0052.009 C:\win32app\speccom\mask.axs chi 0 180 0 360 0.02
#C 2 theta =0.000000 to 180 deg
#C   q   =0.000000 to 81.568 nm^-1
#C  chi  =0.000000 to 360 deg
#C collumns:
#C  1 position (2theta or chi in degrees)
#C  2 average intensity (sum of all counts in the region divided with number of pixels)
#C  3 Number of pixels in region)
#C  4 error (sum of sqrt(intensity) for all pixels divided by number)
#N 4
#L TTh  Int  N_pix  Err
32.99 	0.000000 	61 	0.000000
33.03 	0.060388 	1391 	0.059125
33.07 	0.071707 	2050 	0.069421
33.11 	0.071345 	2579 	0.069756
33.15 	0.072691 	2999 	0.071324
33.19 	0.081388 	3342 	0.079285
33.23 	0.068408 	3523 	0.066911
33.27 	0.068595 	3630 	0.068111
33.31 	0.072404 	3660 	0.070964
33.35 	0.066865 	3694 	0.065279
33.39 	0.065969 	3729 	0.064399
33.43 	0.067269 	3761 	0.066023
33.47 	0.064771 	3798 	0.064308
33.51 	0.077588 	3815 	0.075721
33.55 	0.073380 	3843 	0.072008
33.59 	0.070619 	3880 	0.069562
33.63 	0.064047 	3919 	0.062851
33.67 	0.072585 	3954 	0.069622
33.71 	0.073459 	3975 	0.071691
33.75 	0.066767 	3999 	0.065448
33.79 	0.073497 	4041 	0.071467
33.83 	0.072593 	4050 	0.070857
33.87 	0.072002 	4111 	0.070292
33.91 	0.067486 	4149 	0.066215
33.95 	0.072710 	4181 	0.071449
33.99 	0.078810 	4200 	0.077275
34.03 	0.073987 	4244 	0.072308
34.07 	0.064902 	4268 	0.064078
34.11 	0.066481 	4302 	0.065528
34.15 	0.072270 	4331 	0.071323
34.19 	0.075195 	4362 	0.073180
34.23 	0.071477 	4393 	0.070277
34.27 	0.072818 	4422 	0.070963
34.31 	0.071557 	4458 	0.069827
34.35 	0.064674 	4484 	0.064152
34.39 	0.065971 	4502 	0.064539
34.43 	0.076008 	4539 	0.074438
34.47 	0.064024 	4592 	0.062111
34.51 	0.071429 	4606 	0.070411
34.55 	0.069567 	4643 	0.068053
34.59 	0.068235 	4675 	0.066732
34.63 	0.074310 	4710 	0.073046
34.67 	0.071926 	4741 	0.069558
34.71 	0.068821 	4766 	0.067838
34.75 	0.071755 	4808 	0.070537
34.79 	0.077944 	4824 	0.076851
34.83 	0.067256 	4862 	0.065570
34.87 	0.071898 	4868 	0.070213
34.91 	0.070668 	4882 	0.069588
34.95 	0.069530 	4890 	0.067733
34.99 	0.065755 	4897 	0.064558
35.03 	0.074246 	4943 	0.072469
35.07 	0.070040 	4940 	0.068618
35.11 	0.072771 	4947 	0.070877
35.15 	0.069273 	4937 	0.067137
35.19 	0.069810 	4942 	0.068862
35.23 	0.068959 	4945 	0.067655
35.27 	0.073767 	4948 	0.072228
35.31 	0.076424 	4933 	0.074168
35.35 	0.073452 	4942 	0.071991
35.39 	0.073407 	4945 	0.071394
35.43 	0.074397 	4933 	0.072734
35.47 	0.075644 	4931 	0.073981
35.51 	0.069834 	4926 	0.068525
35.55 	0.071183 	4945 	0.069761
35.59 	0.068959 	4945 	0.067537
35.63 	0.073235 	4943 	0.071576
35.67 	0.074261 	4942 	0.071654
35.71 	0.077375 	4937 	0.075951
35.75 	0.077469 	4931 	0.075767
35.79 	0.063666 	4932 	0.062359
35.83 	0.071169 	4946 	0.070103
35.87 	0.068860 	4923 	0.067909
35.91 	0.068805 	4927 	0.067497
35.95 	0.075453 	4917 	0.073904
35.99 	0.066208 	4939 	0.064784
36.03 	0.073639 	4943 	0.072691
36.07 	0.070055 	4939 	0.068513
36.11 	0.072428 	4929 	0.071478
36.15 	0.067220 	4939 	0.066133
36.19 	0.067004 	4940 	0.065700
36.23 	0.069301 	4935 	0.068470
36.27 	0.069645 	4925 	0.069050
36.31 	0.075081 	4928 	0.073892
36.35 	0.065936 	4929 	0.064629
36.39 	0.065434 	4921 	0.064601
36.43 	0.065950 	4928 	0.064761
36.47 	0.068274 	4936 	0.066494
36.51 	0.067505 	4933 	0.066436
36.55 	0.067384 	4927 	0.065838
36.59 	0.076939 	4939 	0.074883
36.63 	0.074021 	4931 	0.072220
36.67 	0.069371 	4930 	0.067945
36.71 	0.067060 	4921 	0.066464
36.75 	0.061893 	4944 	0.060590
36.79 	0.068888 	4921 	0.067341
36.83 	0.061038 	4915 	0.059250
36.87 	0.068770 	4944 	0.067704
36.91 	0.067193 	4941 	0.065415
36.95 	0.067302 	4933 	0.066589
36.99 	0.070719 	4935 	0.068939
37.03 	0.064582 	4924 	0.063511
37.07 	0.074975 	4935 	0.073274
37.11 	0.057548 	4935 	0.056717
37.15 	0.070890 	4909 	0.068981
37.19 	0.068629 	4925 	0.066845
37.23 	0.070964 	4918 	0.069177
37.27 	0.062934 	4894 	0.061857
37.31 	0.060588 	4935 	0.059519
37.35 	0.058121 	4938 	0.056915
37.39 	0.067126 	4931 	0.065681
37.43 	0.070154 	4932 	0.068966
37.47 	0.064313 	4929 	0.063362
37.51 	0.067910 	4933 	0.066228
37.55 	0.062272 	4930 	0.061440
37.59 	0.069176 	4915 	0.066792
37.63 	0.062411 	4919 	0.061101
37.67 	0.069739 	4904 	0.068544
37.71 	0.063299 	4929 	0.061378
37.75 	0.064777 	4940 	0.063947
37.79 	0.066329 	4930 	0.064903
37.83 	0.066260 	4920 	0.065189
37.87 	0.066005 	4939 	0.064701
37.91 	0.059432 	4930 	0.058957
37.95 	0.068888 	4921 	0.067341
37.99 	0.067590 	4912 	0.066397
38.03 	0.070483 	4909 	0.069647
38.07 	0.071705 	4909 	0.070134
38.11 	0.065856 	4935 	0.064550
38.15 	0.065677 	4918 	0.064843
38.19 	0.064300 	4930 	0.063073
38.23 	0.070676 	4938 	0.069115
38.27 	0.070183 	4930 	0.067925
38.31 	0.067993 	4927 	0.066784
38.35 	0.076705 	4928 	0.075496
38.39 	0.071909 	4909 	0.069383
38.43 	0.071603 	4916 	0.069816
38.47 	0.076625 	4907 	0.075551
38.51 	0.081103 	4932 	0.078846
38.55 	0.082658 	4936 	0.080997
38.59 	0.078392 	4924 	0.076845
38.63 	0.074533 	4924 	0.072986
38.67 	0.081223 	4937 	0.079681
38.71 	0.072502 	4924 	0.071669
38.75 	0.070428 	4927 	0.069239
38.79 	0.071139 	4934 	0.069477
38.83 	0.068510 	4919 	0.067180
38.87 	0.071472 	4911 	0.069922
38.91 	0.065674 	4903 	0.064718
38.95 	0.063847 	4918 	0.062894
38.99 	0.063196 	4937 	0.062010
39.03 	0.061613 	4934 	0.060545
39.07 	0.063769 	4924 	0.062560
39.11 	0.066112 	4931 	0.064806
39.15 	0.068973 	4915 	0.067304
39.19 	0.067724 	4917 	0.065679
39.23 	0.061726 	4925 	0.060993
39.27 	0.063747 	4910 	0.062912
39.31 	0.064906 	4884 	0.063567
39.35 	0.061398 	4935 	0.061042
39.39 	0.067762 	4929 	0.066574
39.43 	0.064869 	4933 	0.063919
39.47 	0.062360 	4923 	0.061408
39.51 	0.066409 	4924 	0.065815
39.55 	0.057939 	4919 	0.057462
39.59 	0.063722 	4912 	0.062410
39.63 	0.068468 	4922 	0.066921
39.67 	0.058824 	4913 	0.057750
39.71 	0.067620 	4895 	0.066284
39.75 	0.067776 	4928 	0.066825
39.79 	0.064555 	4926 	0.063485
39.83 	0.072355 	4934 	0.071049
39.87 	0.073503 	4925 	0.072194
39.91 	0.062373 	4922 	0.060945
39.95 	0.064090 	4915 	0.062659
39.99 	0.066099 	4932 	0.064179
40.03 	0.060268 	4928 	0.059079
40.07 	0.063173 	4923 	0.061725
40.11 	0.059601 	4916 	0.058052
40.15 	0.056788 	4913 	0.056192
40.19 	0.066342 	4929 	0.065154
40.23 	0.060624 	4932 	0.060031
40.27 	0.066437 	4937 	0.064519
40.31 	0.059526 	4939 	0.058340
40.35 	0.064241 	4919 	0.063050
40.39 	0.062056 	4931 	0.060968
40.43 	0.061154 	4922 	0.060202
40.47 	0.056120 	4918 	0.055048
40.51 	0.060544 	4922 	0.059592
40.55 	0.068052 	4908 	0.066859
40.59 	0.061171 	4937 	0.060103
40.63 	0.069574 	4930 	0.068861
40.67 	0.065491 	4932 	0.064165
40.71 	0.071776 	4932 	0.070549
40.75 	0.066112 	4931 	0.064192
40.79 	0.060317 	4924 	0.059841
40.83 	0.057833 	4928 	0.056525
40.87 	0.063515 	4928 	0.062445
40.91 	0.061954 	4923 	0.060388
40.95 	0.060452 	4913 	0.058663
40.99 	0.061129 	4924 	0.060158
41.03 	0.059123 	4905 	0.057690
41.07 	0.064300 	4930 	0.063350
41.11 	0.063222 	4935 	0.061797
41.15 	0.063955 	4941 	0.062413
41.19 	0.057201 	4930 	0.056250
41.23 	0.064993 	4939 	0.064025
41.27 	0.058203 	4931 	0.057134
41.31 	0.058788 	4933 	0.057838
41.35 	0.058526 	4938 	0.057814
41.39 	0.056963 	4933 	0.056370
41.43 	0.061067 	4929 	0.060097
41.47 	0.055826 	4926 	0.055469
41.51 	0.060324 	4940 	0.058782
41.55 	0.053293 	4935 	0.052106
41.59 	0.067910 	4933 	0.066703
41.63 	0.065614 	4938 	0.064309
41.67 	0.062753 	4940 	0.061686
41.71 	0.059992 	4934 	0.059042
41.75 	0.063705 	4929 	0.062041
41.79 	0.051780 	4944 	0.051069
41.83 	0.056818 	4928 	0.056224
41.87 	0.060790 	4935 	0.060315
41.91 	0.056929 	4936 	0.056691
41.95 	0.055770 	4931 	0.054800
41.99 	0.059531 	4905 	0.058695
42.03 	0.064183 	4939 	0.062760
42.07 	0.052056 	4937 	0.051463
42.11 	0.058443 	4945 	0.057732
42.15 	0.053665 	4938 	0.053072
42.19 	0.054197 	4908 	0.053600
42.23 	0.053557 	4892 	0.052599
42.27 	0.059499 	4874 	0.058658
42.31 	0.056025 	4855 	0.055301
42.35 	0.058495 	4838 	0.056921
42.39 	0.059742 	4804 	0.059254
42.43 	0.054674 	4792 	0.053085
42.47 	0.062329 	4765 	0.061326
42.51 	0.056293 	4743 	0.055007
42.55 	0.057562 	4708 	0.056939
42.59 	0.053923 	4729 	0.053179
42.63 	0.058399 	4709 	0.057652
42.67 	0.054654 	4684 	0.053654
42.71 	0.057903 	4663 	0.056354
42.75 	0.055447 	4617 	0.054052
42.79 	0.059581 	4582 	0.058303
42.83 	0.059744 	4536 	0.058453
42.87 	0.055790 	4499 	0.054727
42.91 	0.059695 	4456 	0.058775
42.95 	0.052763 	4416 	0.052099
42.99 	0.059749 	4385 	0.058413
43.03 	0.058389 	4333 	0.057128
43.07 	0.057263 	4296 	0.056286
43.11 	0.053349 	4255 	0.052661
43.15 	0.052782 	4206 	0.052085
43.19 	0.054840 	4194 	0.052862
43.23 	0.052961 	4154 	0.052820
43.27 	0.052375 	4105 	0.051519
43.31 	0.053935 	4079 	0.053073
43.35 	0.052579 	4032 	0.051998
43.39 	0.049225 	4002 	0.048201
43.43 	0.056818 	3960 	0.056054
43.47 	0.053558 	3921 	0.052661
43.51 	0.057777 	3877 	0.056719
43.55 	0.055668 	2964 	0.055273
43.59 	0.060710 	1746 	0.060039
43.63 	0.055944 	1001 	0.053603
43.67 	0.045817 	502 	0.044650
43.71 	0.058577 	239 	0.056126
43.75 	0.187500 	16 	0.187500