Folder: Bessy-II-KMC-II-insitu-sin2psi/Example_Data (part 75)

File: 25SC_s1_0030.002.dat
#F C:\frames\spec\25SC_s1_0030.002
#C title =s:30 frm:2 25SC_s1
#C wavelength =0.15406

#S 1  fr_average C:\frames\spec\25SC_s1_0030.002 C:\win32app\speccom\mask.axs chi 0 180 0 360 0.02
#C 2 theta =0.000000 to 180 deg
#C   q   =0.000000 to 81.568 nm^-1
#C  chi  =0.000000 to 360 deg
#C collumns:
#C  1 position (2theta or chi in degrees)
#C  2 average intensity (sum of all counts in the region divided with number of pixels)
#C  3 Number of pixels in region)
#C  4 error (sum of sqrt(intensity) for all pixels divided by number)
#N 4
#L TTh  Int  N_pix  Err
32.99 	0.081967 	61 	0.081967
33.03 	0.058950 	1391 	0.057687
33.07 	0.045854 	2050 	0.045282
33.11 	0.061652 	2579 	0.060743
33.15 	0.058019 	2999 	0.056847
33.19 	0.053860 	3342 	0.052633
33.23 	0.057337 	3523 	0.056340
33.27 	0.060055 	3630 	0.058925
33.31 	0.056557 	3660 	0.055277
33.35 	0.054413 	3694 	0.053144
33.39 	0.060338 	3729 	0.059238
33.43 	0.061154 	3761 	0.060064
33.47 	0.056872 	3798 	0.056101
33.51 	0.058191 	3815 	0.056502
33.55 	0.053604 	3843 	0.052359
33.59 	0.059278 	3880 	0.057744
33.63 	0.058433 	3919 	0.057686
33.67 	0.059181 	3954 	0.058440
33.71 	0.060629 	3975 	0.059303
33.75 	0.052513 	3999 	0.051171
33.79 	0.059391 	4041 	0.058232
33.83 	0.057778 	4050 	0.056910
33.87 	0.066894 	4111 	0.064471
33.91 	0.063148 	4149 	0.062442
33.95 	0.059555 	4181 	0.058551
33.99 	0.056667 	4200 	0.056109
34.03 	0.054430 	4244 	0.053326
34.07 	0.060918 	4268 	0.060369
34.11 	0.061134 	4302 	0.059909
34.15 	0.058878 	4331 	0.058066
34.19 	0.058001 	4362 	0.057173
34.23 	0.054405 	4393 	0.053605
34.27 	0.058345 	4422 	0.057947
34.31 	0.055182 	4458 	0.054130
34.35 	0.048617 	4484 	0.047833
34.39 	0.063972 	4502 	0.063191
34.43 	0.057061 	4539 	0.056029
34.47 	0.062500 	4592 	0.061458
34.51 	0.061224 	4606 	0.060207
34.55 	0.052121 	4643 	0.051364
34.59 	0.060107 	4675 	0.058979
34.63 	0.062420 	4710 	0.061674
34.67 	0.055263 	4741 	0.054377
34.71 	0.055602 	4766 	0.054496
34.75 	0.054285 	4808 	0.053066
34.79 	0.053897 	4824 	0.052926
34.83 	0.052242 	4862 	0.051519
34.87 	0.060805 	4868 	0.059341
34.91 	0.056125 	4882 	0.055045
34.95 	0.059509 	4890 	0.058292
34.99 	0.057995 	4897 	0.056918
35.03 	0.055837 	4943 	0.054494
35.07 	0.056680 	4940 	0.055494
35.11 	0.057004 	4947 	0.056294
35.15 	0.050233 	4937 	0.049502
35.19 	0.059288 	4942 	0.057628
35.23 	0.056218 	4945 	0.055370
35.27 	0.055780 	4948 	0.055070
35.31 	0.059599 	4933 	0.058510
35.35 	0.054634 	4942 	0.053567
35.39 	0.052983 	4945 	0.051917
35.43 	0.055950 	4933 	0.055118
35.47 	0.060231 	4931 	0.058806
35.51 	0.058059 	4926 	0.057465
35.55 	0.052578 	4945 	0.051986
35.59 	0.058443 	4945 	0.057851
35.63 	0.055027 	4943 	0.054553
35.67 	0.053622 	4942 	0.052674
35.71 	0.054892 	4937 	0.053586
35.75 	0.053944 	4931 	0.053232
35.79 	0.058597 	4932 	0.057766
35.83 	0.055196 	4946 	0.054959
35.87 	0.059517 	4923 	0.058922
35.91 	0.056424 	4927 	0.055592
35.95 	0.049827 	4917 	0.049331
35.99 	0.054869 	4939 	0.053921
36.03 	0.057657 	4943 	0.057065
36.07 	0.051832 	4939 	0.051358
36.11 	0.060459 	4929 	0.059864
36.15 	0.058716 	4939 	0.057886
36.19 	0.060526 	4940 	0.059341
36.23 	0.057345 	4935 	0.056258
36.27 	0.054416 	4925 	0.053703
36.31 	0.058036 	4928 	0.056134
36.35 	0.060864 	4929 	0.060508
36.39 	0.055070 	4921 	0.053761
36.43 	0.058036 	4928 	0.057204
36.47 	0.053079 	4936 	0.052367
36.51 	0.054328 	4933 	0.053022
36.55 	0.052162 	4927 	0.051210
36.59 	0.054262 	4939 	0.053906
36.63 	0.057189 	4931 	0.056120
36.67 	0.049290 	4930 	0.048815
36.71 	0.055273 	4921 	0.054797
36.75 	0.055218 	4944 	0.054508
36.79 	0.054664 	4921 	0.054188
36.83 	0.050458 	4915 	0.049743
36.87 	0.058657 	4944 	0.057828
36.91 	0.052216 	4941 	0.051623
36.95 	0.050679 	4933 	0.050085
36.99 	0.056940 	4935 	0.055753
37.03 	0.054833 	4924 	0.053763
37.07 	0.048430 	4935 	0.047599
37.11 	0.049037 	4935 	0.047950
37.15 	0.054390 	4909 	0.053793
37.19 	0.055228 	4925 	0.054753
37.23 	0.052460 	4918 	0.051388
37.27 	0.052309 	4894 	0.051351
37.31 	0.055927 	4935 	0.055334
37.35 	0.056501 	4938 	0.055433
37.39 	0.051308 	4931 	0.050714
37.43 	0.050892 	4932 	0.050061
37.47 	0.054169 	4929 	0.053813
37.51 	0.056355 	4933 	0.055168
37.55 	0.054970 	4930 	0.053781
37.59 	0.048830 	4915 	0.048473
37.63 	0.051027 	4919 	0.050193
37.67 	0.048736 	4904 	0.048258
37.71 	0.053763 	4929 	0.052932
37.75 	0.050810 	4940 	0.050197
37.79 	0.050304 	4930 	0.049354
37.83 	0.053455 	4920 	0.053217
37.87 	0.046973 	4939 	0.046617
37.91 	0.052738 	4930 	0.052382
37.95 	0.051006 	4921 	0.050530
37.99 	0.056596 	4912 	0.055881
38.03 	0.047260 	4909 	0.046405
38.07 	0.051945 	4909 	0.051468
38.11 	0.052482 	4935 	0.051513
38.15 	0.051647 	4918 	0.050813
38.19 	0.056592 	4930 	0.055622
38.23 	0.051640 	4938 	0.050454
38.27 	0.056592 	4930 	0.055642
38.31 	0.057236 	4927 	0.056522
38.35 	0.054586 	4928 	0.053140
38.39 	0.060297 	4909 	0.058826
38.43 	0.062449 	4916 	0.060761
38.47 	0.062156 	4907 	0.061082
38.51 	0.060219 	4932 	0.059981
38.55 	0.058752 	4936 	0.057565
38.59 	0.062754 	4924 	0.062516
38.63 	0.055443 	4924 	0.054848
38.67 	0.056715 	4937 	0.056121
38.71 	0.052600 	4924 	0.052243
38.75 	0.053379 	4927 	0.052052
38.79 	0.050061 	4934 	0.049230
38.83 	0.047774 	4919 	0.046821
38.87 	0.049074 	4911 	0.048358
38.91 	0.043851 	4903 	0.043253
38.95 	0.049207 	4918 	0.048850
38.99 	0.047600 	4937 	0.047006
39.03 	0.050263 	4934 	0.049670
39.07 	0.044070 	4924 	0.043356
39.11 	0.046644 	4931 	0.045931
39.15 	0.048220 	4915 	0.047247
39.19 	0.046980 	4917 	0.046265
39.23 	0.042843 	4925 	0.042367
39.27 	0.045418 	4910 	0.044821
39.31 	0.047502 	4884 	0.046303
39.35 	0.044782 	4935 	0.044169
39.39 	0.044837 	4929 	0.044599
39.43 	0.045814 	4933 	0.044864
39.47 	0.046516 	4923 	0.046159
39.51 	0.045898 	4924 	0.045422
39.55 	0.050010 	4919 	0.048819
39.59 	0.043160 	4912 	0.042325
39.63 	0.046932 	4922 	0.046218
39.67 	0.043354 	4913 	0.042758
39.71 	0.041267 	4895 	0.041147
39.75 	0.042208 	4928 	0.041970
39.79 	0.042834 	4926 	0.041526
39.83 	0.048845 	4934 	0.048251
39.87 	0.040203 	4925 	0.039589
39.91 	0.047542 	4922 	0.047304
39.95 	0.047813 	4915 	0.047455
39.99 	0.047040 	4932 	0.046308
40.03 	0.039773 	4928 	0.039060
40.07 	0.046719 	4923 	0.046244
40.11 	0.042107 	4916 	0.041988
40.15 	0.041726 	4913 	0.041011
40.19 	0.045445 	4929 	0.045208
40.23 	0.043390 	4932 	0.042796
40.27 	0.045574 	4937 	0.044981
40.31 	0.045758 	4939 	0.045047
40.35 	0.042895 	4919 	0.042657
40.39 	0.040357 	4931 	0.039525
40.43 	0.040431 	4922 	0.040312
40.47 	0.039447 	4918 	0.039209
40.51 	0.044697 	4922 	0.043983
40.55 	0.040546 	4908 	0.039949
40.59 	0.041321 	4937 	0.041083
40.63 	0.043611 	4930 	0.042779
40.67 	0.041768 	4932 	0.041055
40.71 	0.050284 	4932 	0.049176
40.75 	0.040357 	4931 	0.039763
40.79 	0.040414 	4924 	0.040295
40.83 	0.044846 	4928 	0.044014
40.87 	0.043628 	4928 	0.042558
40.91 	0.041032 	4923 	0.040318
40.95 	0.043761 	4913 	0.043165
40.99 	0.042648 	4924 	0.041815
41.03 	0.041998 	4905 	0.041262
41.07 	0.043813 	4930 	0.043219
41.11 	0.045998 	4935 	0.045404
41.15 	0.047156 	4941 	0.046445
41.19 	0.041582 	4930 	0.041107
41.23 	0.045151 	4939 	0.044439
41.27 	0.038937 	4931 	0.038581
41.31 	0.040341 	4933 	0.040103
41.35 	0.035237 	4938 	0.034506
41.39 	0.041962 	4933 	0.041369
41.43 	0.041793 	4929 	0.040724
41.47 	0.038571 	4926 	0.038333
41.51 	0.038259 	4940 	0.037903
41.55 	0.037690 	4935 	0.037334
41.59 	0.044192 	4933 	0.043361
41.63 	0.038680 	4938 	0.038086
41.67 	0.039069 	4940 	0.038832
41.71 	0.042562 	4934 	0.041612
41.75 	0.041185 	4929 	0.041066
41.79 	0.034992 	4944 	0.034636
41.83 	0.037946 	4928 	0.037233
41.87 	0.040324 	4935 	0.040087
41.91 	0.035656 	4936 	0.035300
41.95 	0.045224 	4931 	0.043660
41.99 	0.043221 	4905 	0.042385
42.03 	0.035635 	4939 	0.035398
42.07 	0.041726 	4937 	0.041370
42.11 	0.035794 	4945 	0.035320
42.15 	0.035237 	4938 	0.035118
42.19 	0.038101 	4908 	0.037504
42.23 	0.034751 	4892 	0.034152
42.27 	0.039803 	4874 	0.039442
42.31 	0.043666 	4855 	0.043304
42.35 	0.035345 	4838 	0.035103
42.39 	0.037885 	4804 	0.037275
42.43 	0.036937 	4792 	0.036570
42.47 	0.041763 	4765 	0.041025
42.51 	0.039427 	4743 	0.039056
42.55 	0.033772 	4708 	0.033648
42.59 	0.042292 	4729 	0.041797
42.63 	0.036738 	4709 	0.036365
42.67 	0.037361 	4684 	0.037111
42.71 	0.037744 	4663 	0.037493
42.75 	0.040936 	4617 	0.040682
42.79 	0.041903 	4582 	0.041647
42.83 	0.035935 	4536 	0.035676
42.87 	0.030673 	4499 	0.030543
42.91 	0.040844 	4456 	0.040187
42.95 	0.037591 	4416 	0.037193
42.99 	0.041049 	4385 	0.040515
43.03 	0.038772 	4333 	0.038502
43.07 	0.038175 	4296 	0.037766
43.11 	0.035018 	4255 	0.034742
43.15 	0.035901 	4206 	0.035623
43.19 	0.040296 	4194 	0.040156
43.23 	0.043332 	4154 	0.043050
43.27 	0.044336 	4105 	0.044051
43.31 	0.037509 	4079 	0.037222
43.35 	0.038442 	4032 	0.037425
43.39 	0.042229 	4002 	0.041936
43.43 	0.040657 	3960 	0.039597
43.47 	0.035705 	3921 	0.035705
43.51 	0.043848 	3877 	0.043697
43.55 	0.034413 	2964 	0.033820
43.59 	0.044101 	1746 	0.043094
43.63 	0.045954 	1001 	0.045954
43.67 	0.041833 	502 	0.040666
43.71 	0.033473 	239 	0.033473
43.75 	0.000000 	16 	0.000000

File: 25SC_s1_0030.003.dat
#F C:\frames\spec\25SC_s1_0030.003
#C title =s:30 frm:3 25SC_s1
#C wavelength =0.15406

#S 1  fr_average C:\frames\spec\25SC_s1_0030.003 C:\win32app\speccom\mask.axs chi 0 180 0 360 0.02
#C 2 theta =0.000000 to 180 deg
#C   q   =0.000000 to 81.568 nm^-1
#C  chi  =0.000000 to 360 deg
#C collumns:
#C  1 position (2theta or chi in degrees)
#C  2 average intensity (sum of all counts in the region divided with number of pixels)
#C  3 Number of pixels in region)
#C  4 error (sum of sqrt(intensity) for all pixels divided by number)
#N 4
#L TTh  Int  N_pix  Err
32.99 	0.016393 	61 	0.016393
33.03 	0.056075 	1391 	0.056075
33.07 	0.058537 	2050 	0.057108
33.11 	0.061652 	2579 	0.060970
33.15 	0.060353 	2999 	0.059572
33.19 	0.061341 	3342 	0.059763
33.23 	0.051377 	3523 	0.050878
33.27 	0.060606 	3630 	0.059799
33.31 	0.059016 	3660 	0.058056
33.35 	0.059556 	3694 	0.058763
33.39 	0.053634 	3729 	0.053005
33.43 	0.057697 	3761 	0.056919
33.47 	0.061611 	3798 	0.060377
33.51 	0.066055 	3815 	0.064980
33.55 	0.062711 	3843 	0.062254
33.59 	0.056443 	3880 	0.054783
33.63 	0.053585 	3919 	0.052838
33.67 	0.052099 	3954 	0.051655
33.71 	0.062138 	3975 	0.060959
33.75 	0.067517 	3999 	0.066199
33.79 	0.064093 	4041 	0.062330
33.83 	0.052840 	4050 	0.051393
33.87 	0.057164 	4111 	0.056166
33.91 	0.056158 	4149 	0.054887
33.95 	0.062425 	4181 	0.061024
33.99 	0.061905 	4200 	0.060487
34.03 	0.057022 	4244 	0.055365
34.07 	0.060684 	4268 	0.059723
34.11 	0.061367 	4302 	0.060822
34.15 	0.056800 	4331 	0.055988
34.19 	0.063961 	4362 	0.062619
34.23 	0.062600 	4393 	0.061533
34.27 	0.058118 	4422 	0.057324
34.31 	0.058098 	4458 	0.057178
34.35 	0.061329 	4484 	0.060545
34.39 	0.058641 	4502 	0.057860
34.43 	0.057722 	4539 	0.056819
34.47 	0.059016 	4592 	0.057995
34.51 	0.057751 	4606 	0.057115
34.55 	0.054706 	4643 	0.054075
34.59 	0.056043 	4675 	0.055291
34.63 	0.060085 	4710 	0.058966
34.67 	0.055263 	4741 	0.054151
34.71 	0.057910 	4766 	0.057296
34.75 	0.058652 	4808 	0.057556
34.79 	0.060116 	4824 	0.059145
34.83 	0.056150 	4862 	0.054583
34.87 	0.056491 	4868 	0.055529
34.91 	0.052028 	4882 	0.051188
34.95 	0.057260 	4890 	0.056781
34.99 	0.063100 	4897 	0.061525
35.03 	0.059883 	4943 	0.059172
35.07 	0.059312 	4940 	0.058363
35.11 	0.057611 	4947 	0.056427
35.15 	0.059955 	4937 	0.058650
35.19 	0.055645 	4942 	0.054105
35.23 	0.056825 	4945 	0.056233
35.27 	0.059822 	4948 	0.058993
35.31 	0.053112 	4933 	0.052637
35.35 	0.062930 	4942 	0.061626
35.39 	0.053994 	4945 	0.053165
35.43 	0.051895 	4933 	0.051183
35.47 	0.055770 	4931 	0.055057
35.51 	0.052984 	4926 	0.052746
35.55 	0.052578 	4945 	0.051019
35.59 	0.061274 	4945 	0.059852
35.63 	0.060692 	4943 	0.059033
35.67 	0.059895 	4942 	0.058591
35.71 	0.056107 	4937 	0.055158
35.75 	0.057189 	4931 	0.056476
35.79 	0.063058 	4932 	0.062107
35.83 	0.053983 	4946 	0.053036
35.87 	0.060938 	4923 	0.059392
35.91 	0.057642 	4927 	0.057285
35.95 	0.058166 	4917 	0.056855
35.99 	0.055679 	4939 	0.054849
36.03 	0.049767 	4943 	0.049056
36.07 	0.057502 	4939 	0.056296
36.11 	0.055589 	4929 	0.054857
36.15 	0.057502 	4939 	0.056908
36.19 	0.054049 	4940 	0.053080
36.23 	0.059372 	4935 	0.058541
36.27 	0.058274 	4925 	0.057917
36.31 	0.046266 	4928 	0.045434
36.35 	0.055386 	4929 	0.054436
36.39 	0.058321 	4921 	0.057012
36.43 	0.054789 	4928 	0.054313
36.47 	0.053687 	4936 	0.052975
36.51 	0.056963 	4933 	0.056251
36.55 	0.053785 	4927 	0.052458
36.59 	0.054667 	4939 	0.053936
36.63 	0.053336 	4931 	0.052267
36.67 	0.048682 	4930 	0.048325
36.71 	0.051209 	4921 	0.050376
36.75 	0.052387 	4944 	0.051320
36.79 	0.057509 	4921 	0.056794
36.83 	0.056562 	4915 	0.055350
36.87 	0.058657 	4944 	0.057709
36.91 	0.049787 	4941 	0.049076
36.95 	0.048855 	4933 	0.048380
36.99 	0.052077 	4935 	0.051246
37.03 	0.054630 	4924 	0.054392
37.07 	0.056130 	4935 	0.055417
37.11 	0.053293 	4935 	0.052106
37.15 	0.051742 	4909 	0.051264
37.19 	0.049340 	4925 	0.048508
37.23 	0.055714 	4918 	0.053927
37.27 	0.053331 	4894 	0.051775
37.31 	0.053698 	4935 	0.052986
37.35 	0.048198 	4938 	0.047723
37.39 	0.052322 	4931 	0.051728
37.43 	0.048459 	4932 	0.047746
37.47 	0.048286 	4929 	0.048048
37.51 	0.052504 	4933 	0.051910
37.55 	0.050304 	4930 	0.049473
37.59 	0.049440 	4915 	0.049083
37.63 	0.051840 	4919 	0.051483
37.67 	0.045473 	4904 	0.045115
37.71 	0.050720 	4929 	0.050007
37.75 	0.052632 	4940 	0.051920
37.79 	0.048682 	4930 	0.048206
37.83 	0.050610 	4920 	0.050014
37.87 	0.053655 	4939 	0.053180
37.91 	0.048682 	4930 	0.048206
37.95 	0.050803 	4921 	0.050327
37.99 	0.050489 	4912 	0.049892
38.03 	0.050723 	4909 	0.050127
38.07 	0.052149 	4909 	0.051194
38.11 	0.052685 	4935 	0.051379
38.15 	0.051850 	4918 	0.051017
38.19 	0.051927 	4930 	0.051571
38.23 	0.051033 	4938 	0.050321
38.27 	0.055984 	4930 	0.054657
38.31 	0.054800 	4927 	0.053492
38.35 	0.057224 	4928 	0.056154
38.39 	0.065390 	4909 	0.064674
38.43 	0.059805 	4916 	0.058355
38.47 	0.062564 	4907 	0.061131
38.51 	0.057989 	4932 	0.057276
38.55 	0.065438 	4936 	0.063776
38.59 	0.060317 	4924 	0.058889
38.63 	0.060317 	4924 	0.058889
38.67 	0.049625 	4937 	0.048419
38.71 	0.051584 	4924 	0.050751
38.75 	0.054191 	4927 	0.053478
38.79 	0.050669 	4934 	0.050075
38.83 	0.048384 	4919 	0.047907
38.87 	0.052942 	4911 	0.051988
38.91 	0.047930 	4903 	0.047213
38.95 	0.047987 	4918 	0.047272
38.99 	0.050233 	4937 	0.049165
39.03 	0.044183 	4934 	0.043827
39.07 	0.048944 	4924 	0.048230
39.11 	0.051308 	4931 	0.050476
39.15 	0.046999 	4915 	0.046284
39.19 	0.051658 	4917 	0.051181
39.23 	0.045076 	4925 	0.044600
39.27 	0.045214 	4910 	0.045095
39.31 	0.052416 	4884 	0.051217
39.35 	0.042756 	4935 	0.042518
39.39 	0.043822 	4929 	0.043327
39.43 	0.043381 	4933 	0.042669
39.47 	0.043469 	4923 	0.043231
39.51 	0.043258 	4924 	0.042425
39.55 	0.043708 	4919 	0.043232
39.59 	0.043974 	4912 	0.043378
39.63 	0.048964 	4922 	0.048012
39.67 	0.046204 	4913 	0.045131
39.71 	0.046170 	4895 	0.045332
39.75 	0.047078 	4928 	0.046840
39.79 	0.047706 	4926 	0.046993
39.83 	0.045197 	4934 	0.044840
39.87 	0.048122 	4925 	0.047408
39.91 	0.054043 	4922 	0.053567
39.95 	0.045778 	4915 	0.045301
39.99 	0.046229 	4932 	0.045516
40.03 	0.046469 	4928 	0.045875
40.07 	0.045094 	4923 	0.044143
40.11 	0.047396 	4916 	0.046800
40.15 	0.044169 	4913 	0.043811
40.19 	0.048083 	4929 	0.047489
40.23 	0.042579 	4932 	0.042223
40.27 	0.045574 	4937 	0.044862
40.31 	0.048795 	4939 	0.048202
40.35 	0.046757 	4919 	0.046281
40.39 	0.046238 	4931 	0.045644
40.43 	0.049167 	4922 	0.048195
40.47 	0.052257 	4918 	0.051661
40.51 	0.042259 	4922 	0.041545
40.55 	0.043195 	4908 	0.042837
40.59 	0.043954 	4937 	0.043717
40.63 	0.042394 	4930 	0.041681
40.67 	0.045418 	4932 	0.044943
40.71 	0.044201 	4932 	0.043964
40.75 	0.044413 	4931 	0.043819
40.79 	0.049553 	4924 	0.048463
40.83 	0.043425 	4928 	0.042950
40.87 	0.041396 	4928 	0.041158
40.91 	0.042657 	4923 	0.042419
40.95 	0.042133 	4913 	0.041298
40.99 	0.045288 	4924 	0.045050
41.03 	0.048114 	4905 	0.047039
41.07 	0.043813 	4930 	0.043100
41.11 	0.044985 	4935 	0.044747
41.15 	0.046347 	4941 	0.045754
41.19 	0.040771 	4930 	0.040296
41.23 	0.042924 	4939 	0.042331
41.27 	0.037112 	4931 	0.036637
41.31 	0.041760 	4933 	0.041403
41.35 	0.037870 	4938 	0.037395
41.39 	0.044598 	4933 	0.044004
41.43 	0.042199 	4929 	0.041367
41.47 	0.042225 	4926 	0.041868
41.51 	0.043117 	4940 	0.043117
41.55 	0.045187 	4935 	0.045069
41.59 	0.038719 	4933 	0.038244
41.63 	0.043540 	4938 	0.043065
41.67 	0.042105 	4940 	0.041750
41.71 	0.042764 	4934 	0.041914
41.75 	0.039156 	4929 	0.038681
41.79 	0.038633 	4944 	0.038396
41.83 	0.038352 	4928 	0.037996
41.87 	0.045795 	4935 	0.045558
41.91 	0.045583 	4936 	0.044733
41.95 	0.040965 	4931 	0.040609
41.99 	0.041998 	4905 	0.041640
42.03 	0.044138 	4939 	0.043664
42.07 	0.041523 	4937 	0.040693
42.11 	0.046512 	4945 	0.045919
42.15 	0.042325 	4938 	0.042088
42.19 	0.038509 	4908 	0.037653
42.23 	0.043745 	4892 	0.043505
42.27 	0.045548 	4874 	0.045307
42.31 	0.045314 	4855 	0.045193
42.35 	0.035345 	4838 	0.035103
42.39 	0.045379 	4804 	0.045135
42.43 	0.042154 	4792 	0.041665
42.47 	0.040714 	4765 	0.039853
42.51 	0.042378 	4743 	0.041884
42.55 	0.040782 	4708 	0.040284
42.59 	0.037217 	4729 	0.035978
42.63 	0.037588 	4709 	0.037339
42.67 	0.042058 	4684 	0.041683
42.71 	0.043534 	4663 	0.042906
42.75 	0.041152 	4617 	0.040645
42.79 	0.045613 	4582 	0.044974
42.83 	0.038580 	4536 	0.038451
42.87 	0.044232 	4499 	0.043841
42.91 	0.036355 	4456 	0.036224
42.95 	0.040761 	4416 	0.040496
42.99 	0.041733 	4385 	0.041466
43.03 	0.039234 	4333 	0.038828
43.07 	0.045857 	4296 	0.044493
43.11 	0.039013 	4255 	0.038600
43.15 	0.043985 	4206 	0.043428
43.19 	0.045303 	4194 	0.044884
43.23 	0.041887 	4154 	0.041605
43.27 	0.040438 	4105 	0.040010
43.31 	0.042903 	4079 	0.042615
43.35 	0.044147 	4032 	0.043856
43.39 	0.040230 	4002 	0.039644
43.43 	0.039141 	3960 	0.038106
43.47 	0.042081 	3921 	0.041334
43.51 	0.036626 	3877 	0.036324
43.55 	0.034076 	2964 	0.034076
43.59 	0.031501 	1746 	0.030830
43.63 	0.037962 	1001 	0.037377
43.67 	0.043825 	502 	0.043825
43.71 	0.033473 	239 	0.033473
43.75 	0.125000 	16 	0.125000