Folder: Bessy-II-KMC-II-insitu-sin2psi/Example_Data (part 37)

File: 25SC_s1_0015.001.dat
#F C:\frames\spec\25SC_s1_0015.001
#C title =s:15 frm:1 25SC_s1
#C wavelength =0.15406

#S 1  fr_average C:\frames\spec\25SC_s1_0015.001 C:\win32app\speccom\mask.axs chi 0 180 0 360 0.02
#C 2 theta =0.000000 to 180 deg
#C   q   =0.000000 to 81.568 nm^-1
#C  chi  =0.000000 to 360 deg
#C collumns:
#C  1 position (2theta or chi in degrees)
#C  2 average intensity (sum of all counts in the region divided with number of pixels)
#C  3 Number of pixels in region)
#C  4 error (sum of sqrt(intensity) for all pixels divided by number)
#N 4
#L TTh  Int  N_pix  Err
32.99 	0.131148 	61 	0.131148
33.03 	0.057513 	1391 	0.057091
33.07 	0.060488 	2050 	0.060202
33.11 	0.057387 	2579 	0.055305
33.15 	0.062021 	2999 	0.059417
33.19 	0.057151 	3342 	0.056450
33.23 	0.064150 	3523 	0.063152
33.27 	0.060055 	3630 	0.059087
33.31 	0.059290 	3660 	0.058649
33.35 	0.057932 	3694 	0.057139
33.39 	0.061142 	3729 	0.059729
33.43 	0.065674 	3761 	0.064117
33.47 	0.059768 	3798 	0.059151
33.51 	0.055832 	3815 	0.054757
33.55 	0.065834 	3843 	0.064589
33.59 	0.064175 	3880 	0.062665
33.63 	0.059964 	3919 	0.057673
33.67 	0.054628 	3954 	0.053591
33.71 	0.061384 	3975 	0.060205
33.75 	0.058265 	3999 	0.057825
33.79 	0.056917 	4041 	0.055588
33.83 	0.063951 	4050 	0.062938
33.87 	0.062029 	4111 	0.061031
33.91 	0.060255 	4149 	0.059408
33.95 	0.061229 	4181 	0.060109
33.99 	0.063333 	4200 	0.062078
34.03 	0.059378 	4244 	0.058412
34.07 	0.059044 	4268 	0.058061
34.11 	0.063691 	4302 	0.062466
34.15 	0.060725 	4331 	0.059913
34.19 	0.060293 	4362 	0.059622
34.23 	0.060323 	4393 	0.059657
34.27 	0.059249 	4422 	0.057925
34.31 	0.063257 	4458 	0.061812
34.35 	0.057538 	4484 	0.056471
34.39 	0.055531 	4502 	0.054620
34.43 	0.060806 	4539 	0.059624
34.47 	0.052483 	4592 	0.051590
34.51 	0.057099 	4606 	0.056591
34.55 	0.063752 	4643 	0.062112
34.59 	0.059465 	4675 	0.058192
34.63 	0.060934 	4710 	0.059566
34.67 	0.059692 	4741 	0.058951
34.71 	0.059589 	4766 	0.057725
34.75 	0.061980 	4808 	0.060498
34.79 	0.059080 	4824 	0.058472
34.83 	0.055533 	4862 	0.054188
34.87 	0.057313 	4868 	0.056110
34.91 	0.060836 	4882 	0.059756
34.95 	0.064213 	4890 	0.062875
34.99 	0.059424 	4897 	0.058108
35.03 	0.056039 	4943 	0.055209
35.07 	0.052632 	4940 	0.051564
35.11 	0.052961 	4947 	0.052369
35.15 	0.058335 	4937 	0.057742
35.19 	0.061514 	4942 	0.060684
35.23 	0.059858 	4945 	0.058437
35.27 	0.055578 	4948 	0.054986
35.31 	0.054328 	4933 	0.053497
35.35 	0.058883 	4942 	0.057816
35.39 	0.061274 	4945 	0.060208
35.43 	0.058990 	4933 	0.057803
35.47 	0.061854 	4931 	0.060428
35.51 	0.051360 	4926 	0.050766
35.55 	0.056421 	4945 	0.055118
35.59 	0.057230 	4945 	0.056637
35.63 	0.052195 	4943 	0.051721
35.67 	0.059895 	4942 	0.058947
35.71 	0.055904 	4937 	0.055192
35.75 	0.059826 	4931 	0.058499
35.79 	0.056569 	4932 	0.056094
35.83 	0.059442 	4946 	0.057902
35.87 	0.056470 	4923 	0.055637
35.91 	0.057642 	4927 	0.056809
35.95 	0.058776 	4917 	0.058180
35.99 	0.062361 	4939 	0.061412
36.03 	0.062310 	4943 	0.061244
36.07 	0.063981 	4939 	0.062557
36.11 	0.055589 	4929 	0.054995
36.15 	0.058311 	4939 	0.057363
36.19 	0.056883 	4940 	0.055578
36.23 	0.055117 	4935 	0.054147
36.27 	0.059695 	4925 	0.058744
36.31 	0.061485 	4928 	0.060534
36.35 	0.068168 	4929 	0.066623
36.39 	0.060963 	4921 	0.059991
36.43 	0.058644 	4928 	0.056861
36.47 	0.064425 	4936 	0.063357
36.51 	0.064869 	4933 	0.063207
36.55 	0.062310 	4927 	0.060764
36.59 	0.059931 	4939 	0.058152
36.63 	0.062056 	4931 	0.061106
36.67 	0.057404 	4930 	0.056334
36.71 	0.062386 	4921 	0.061195
36.75 	0.059668 	4944 	0.058246
36.79 	0.057712 	4921 	0.057355
36.83 	0.055544 	4915 	0.053856
36.87 	0.057039 	4944 	0.056565
36.91 	0.058288 	4941 	0.057102
36.95 	0.061423 	4933 	0.060691
36.99 	0.055319 	4935 	0.054607
37.03 	0.059708 	4924 	0.058280
37.07 	0.057548 	4935 	0.056599
37.11 	0.061803 	4935 	0.060379
37.15 	0.060501 	4909 	0.059427
37.19 	0.056041 	4925 	0.054851
37.23 	0.055714 	4918 	0.054999
37.27 	0.064978 	4894 	0.063881
37.31 	0.058764 	4935 	0.057577
37.35 	0.058323 	4938 	0.057256
37.39 	0.058203 	4931 	0.057134
37.43 	0.063666 	4932 	0.062241
37.47 	0.062487 	4929 	0.061418
37.51 	0.055747 	4933 	0.054678
37.55 	0.056998 	4930 	0.056047
37.59 	0.059207 	4915 	0.058134
37.63 	0.062411 	4919 	0.061220
37.67 	0.064029 	4904 	0.063074
37.71 	0.055995 	4929 	0.055044
37.75 	0.049190 	4940 	0.048360
37.79 	0.055984 	4930 	0.055390
37.83 	0.053455 	4920 	0.052979
37.87 	0.059324 	4939 	0.057307
37.91 	0.053550 	4930 	0.052124
37.95 	0.055273 	4921 	0.054321
37.99 	0.061889 	4912 	0.060697
38.03 	0.057242 	4909 	0.056406
38.07 	0.052149 	4909 	0.051672
38.11 	0.056130 	4935 	0.055061
38.15 	0.051647 	4918 	0.050694
38.19 	0.058215 	4930 	0.057621
38.23 	0.059336 	4938 	0.058149
38.27 	0.052130 	4930 	0.051655
38.31 	0.055409 	4927 	0.054696
38.35 	0.064123 	4928 	0.063054
38.39 	0.057038 	4909 	0.055825
38.43 	0.061839 	4916 	0.060766
38.47 	0.060526 	4907 	0.060168
38.51 	0.067924 	4932 	0.067092
38.55 	0.068071 	4936 	0.066252
38.59 	0.074127 	4924 	0.072223
38.63 	0.066613 	4924 	0.064908
38.67 	0.077983 	4937 	0.076321
38.71 	0.066613 	4924 	0.065542
38.75 	0.070428 	4927 	0.069239
38.79 	0.070936 	4934 	0.069868
38.83 	0.065664 	4919 	0.064592
38.87 	0.071472 	4911 	0.069544
38.91 	0.064654 	4903 	0.063460
38.95 	0.064660 	4918 	0.063469
38.99 	0.066032 	4937 	0.064727
39.03 	0.052696 	4934 	0.052221
39.07 	0.047725 	4924 	0.047012
39.11 	0.053133 	4931 	0.052896
39.15 	0.049440 	4915 	0.048845
39.19 	0.049624 	4917 	0.048790
39.23 	0.051574 	4925 	0.051098
39.27 	0.053768 	4910 	0.052455
39.31 	0.043612 	4884 	0.043012
39.35 	0.053293 	4935 	0.052818
39.39 	0.042808 	4929 	0.042095
39.43 	0.051895 	4933 	0.051183
39.47 	0.044079 	4923 	0.043365
39.51 	0.044070 	4924 	0.043693
39.55 	0.044318 	4919 	0.043961
39.59 	0.041735 	4912 	0.041496
39.63 	0.050996 	4922 	0.050519
39.67 	0.047832 	4913 	0.047236
39.71 	0.048417 	4895 	0.047938
39.75 	0.045860 	4928 	0.045385
39.79 	0.046894 	4926 	0.046181
39.83 	0.048439 	4934 	0.047727
39.87 	0.044467 	4925 	0.043159
39.91 	0.040228 	4922 	0.039871
39.95 	0.042726 	4915 	0.042250
39.99 	0.038929 	4932 	0.038454
40.03 	0.044643 	4928 	0.044405
40.07 	0.045094 	4923 	0.044381
40.11 	0.044955 	4916 	0.044717
40.15 	0.042947 	4913 	0.042709
40.19 	0.040779 	4929 	0.040066
40.23 	0.049473 	4932 	0.048998
40.27 	0.043751 	4937 	0.043514
40.31 	0.037255 	4939 	0.036543
40.35 	0.041472 	4919 	0.040996
40.39 	0.044210 	4931 	0.043735
40.43 	0.040634 	4922 	0.040277
40.47 	0.042904 	4918 	0.042070
40.51 	0.040431 	4922 	0.040193
40.55 	0.039324 	4908 	0.038846
40.59 	0.045169 	4937 	0.044695
40.63 	0.041785 	4930 	0.041191
40.67 	0.040754 	4932 	0.039923
40.71 	0.042376 	4932 	0.041664
40.75 	0.045021 	4931 	0.044309
40.79 	0.042039 	4924 	0.041682
40.83 	0.042411 	4928 	0.042054
40.87 	0.044440 	4928 	0.043113
40.91 	0.046516 	4923 	0.045921
40.95 	0.041319 	4913 	0.040961
40.99 	0.040617 	4924 	0.040142
41.03 	0.038736 	4905 	0.038497
41.07 	0.037931 	4930 	0.037693
41.11 	0.042958 	4935 	0.042602
41.15 	0.037847 	4941 	0.037254
41.19 	0.040162 	4930 	0.039687
41.23 	0.040089 	4939 	0.039615
41.27 	0.043805 	4931 	0.043211
41.31 	0.046017 	4933 	0.045542
41.35 	0.037262 	4938 	0.036906
41.39 	0.041962 	4933 	0.041725
41.43 	0.039765 	4929 	0.039289
41.47 	0.044255 	4926 	0.043541
41.51 	0.042510 	4940 	0.041799
41.55 	0.038298 	4935 	0.037566
41.59 	0.038516 	4933 	0.038041
41.63 	0.039085 	4938 	0.038610
41.67 	0.037854 	4940 	0.037380
41.71 	0.039724 	4934 	0.039487
41.75 	0.034084 	4929 	0.033846
41.79 	0.041464 	4944 	0.040635
41.83 	0.045657 	4928 	0.044707
41.87 	0.046403 	4935 	0.045928
41.91 	0.040519 	4936 	0.039807
41.95 	0.041574 	4931 	0.040980
41.99 	0.038328 	4905 	0.037851
42.03 	0.039279 	4939 	0.039042
42.07 	0.043549 	4937 	0.043311
42.11 	0.044085 	4945 	0.043256
42.15 	0.039895 	4938 	0.039302
42.19 	0.043195 	4908 	0.042598
42.23 	0.038635 	4892 	0.038275
42.27 	0.042265 	4874 	0.041664
42.31 	0.036663 	4855 	0.036301
42.35 	0.038032 	4838 	0.037548
42.39 	0.040799 	4804 	0.040555
42.43 	0.042154 	4792 	0.041420
42.47 	0.043861 	4765 	0.043124
42.51 	0.039637 	4743 	0.039020
42.55 	0.036109 	4708 	0.035611
42.59 	0.035737 	4729 	0.035489
42.63 	0.035676 	4709 	0.035179
42.67 	0.037575 	4684 	0.036949
42.71 	0.040532 	4663 	0.040029
42.75 	0.035954 	4617 	0.035700
42.79 	0.039066 	4582 	0.038555
42.83 	0.040123 	4536 	0.039865
42.87 	0.036008 	4499 	0.035748
42.91 	0.036580 	4456 	0.036448
42.95 	0.040308 	4416 	0.040175
42.99 	0.037856 	4385 	0.037456
43.03 	0.038772 	4333 	0.038502
43.07 	0.037244 	4296 	0.037244
43.11 	0.039483 	4255 	0.039070
43.15 	0.042796 	4206 	0.042239
43.19 	0.039342 	4194 	0.038783
43.23 	0.044776 	4154 	0.044776
43.27 	0.040682 	4105 	0.040254
43.31 	0.039470 	4079 	0.038752
43.35 	0.044147 	4032 	0.043275
43.39 	0.036732 	4002 	0.036000
43.43 	0.034848 	3960 	0.034405
43.47 	0.034430 	3921 	0.034281
43.51 	0.029146 	3877 	0.028693
43.55 	0.033738 	2964 	0.033343
43.59 	0.035510 	1746 	0.034503
43.63 	0.036963 	1001 	0.036963
43.67 	0.049801 	502 	0.049801
43.71 	0.033473 	239 	0.033473
43.75 	0.000000 	16 	0.000000

File: 25SC_s1_0015.002.dat
#F C:\frames\spec\25SC_s1_0015.002
#C title =s:15 frm:2 25SC_s1
#C wavelength =0.15406

#S 1  fr_average C:\frames\spec\25SC_s1_0015.002 C:\win32app\speccom\mask.axs chi 0 180 0 360 0.02
#C 2 theta =0.000000 to 180 deg
#C   q   =0.000000 to 81.568 nm^-1
#C  chi  =0.000000 to 360 deg
#C collumns:
#C  1 position (2theta or chi in degrees)
#C  2 average intensity (sum of all counts in the region divided with number of pixels)
#C  3 Number of pixels in region)
#C  4 error (sum of sqrt(intensity) for all pixels divided by number)
#N 4
#L TTh  Int  N_pix  Err
32.99 	0.016393 	61 	0.016393
33.03 	0.069734 	1391 	0.068892
33.07 	0.049268 	2050 	0.048983
33.11 	0.054672 	2579 	0.053764
33.15 	0.056019 	2999 	0.055042
33.19 	0.060742 	3342 	0.059866
33.23 	0.060744 	3523 	0.059746
33.27 	0.057300 	3630 	0.056816
33.31 	0.055191 	3660 	0.054071
33.35 	0.066594 	3694 	0.065643
33.39 	0.066774 	3729 	0.065203
33.43 	0.065142 	3761 	0.063740
33.47 	0.064508 	3798 	0.064045
33.51 	0.059240 	3815 	0.058779
33.55 	0.059329 	3843 	0.057652
33.59 	0.054124 	3880 	0.053671
33.63 	0.055882 	3919 	0.054088
33.67 	0.062974 	3954 	0.061789
33.71 	0.053333 	3975 	0.052278
33.75 	0.056764 	3999 	0.055446
33.79 	0.064835 	4041 	0.063966
33.83 	0.062716 	4050 	0.062427
33.87 	0.061542 	4111 	0.060687
33.91 	0.059291 	4149 	0.058162
33.95 	0.057881 	4181 	0.057040
33.99 	0.058095 	4200 	0.057537
34.03 	0.052780 	4244 	0.052366
34.07 	0.062793 	4268 	0.061832
34.11 	0.057415 	4302 	0.056440
34.15 	0.055414 	4331 	0.054468
34.19 	0.060981 	4362 	0.059213
34.23 	0.055315 	4393 	0.053693
34.27 	0.052239 	4422 	0.051709
34.31 	0.057425 	4458 	0.056636
34.35 	0.051740 	4484 	0.051217
34.39 	0.055309 	4502 	0.054528
34.43 	0.058383 	4539 	0.057609
34.47 	0.052483 	4592 	0.051845
34.51 	0.061876 	4606 	0.061494
34.55 	0.054491 	4643 	0.053860
34.59 	0.057968 	4675 	0.056423
34.63 	0.056688 	4710 	0.055817
34.67 	0.059481 	4741 	0.058369
34.71 	0.054133 	4766 	0.053130
34.75 	0.058236 	4808 	0.056774
34.79 	0.054934 	4824 	0.054327
34.83 	0.061909 	4862 	0.060704
34.87 	0.051150 	4868 	0.050910
34.91 	0.054076 	4882 	0.053236
34.95 	0.057669 	4890 	0.056830
34.99 	0.053502 	4897 	0.052545
35.03 	0.063322 	4943 	0.062255
35.07 	0.053644 	4940 	0.053169
35.11 	0.057206 	4947 	0.056378
35.15 	0.060361 	4937 	0.059649
35.19 	0.056455 	4942 	0.055625
35.23 	0.059656 	4945 	0.059182
35.27 	0.052749 	4948 	0.051683
35.31 	0.058180 	4933 	0.057111
35.35 	0.058883 	4942 	0.058290
35.39 	0.059656 	4945 	0.058709
35.43 	0.053314 	4933 	0.052364
35.47 	0.058609 	4931 	0.057421
35.51 	0.062322 	4926 	0.061728
35.55 	0.056421 	4945 	0.055354
35.59 	0.063701 	4945 	0.062635
35.63 	0.052397 	4943 	0.051449
35.67 	0.062323 	4942 	0.061138
35.71 	0.064817 	4937 	0.063729
35.75 	0.051916 	4931 	0.050728
35.79 	0.046026 	4932 	0.045195
35.83 	0.057622 	4946 	0.057149
35.87 	0.059517 	4923 	0.058446
35.91 	0.057642 	4927 	0.056552
35.95 	0.057149 	4917 	0.056196
35.99 	0.056692 	4939 	0.055624
36.03 	0.061299 	4943 	0.060469
36.07 	0.059729 	4939 	0.058780
36.11 	0.055792 	4929 	0.055198
36.15 	0.052035 	4939 	0.051205
36.19 	0.056073 	4940 	0.055599
36.23 	0.052685 	4935 	0.051953
36.27 	0.058883 	4925 	0.057317
36.31 	0.054992 	4928 	0.053684
36.35 	0.062082 	4929 	0.061230
36.39 	0.055070 	4921 	0.054237
36.43 	0.062500 	4928 	0.061787
36.47 	0.057131 	4936 	0.056419
36.51 	0.063653 	4933 	0.062465
36.55 	0.058859 	4927 	0.057908
36.59 	0.057704 	4939 	0.056518
36.63 	0.058000 	4931 	0.057169
36.67 	0.055781 	4930 	0.054949
36.71 	0.059541 	4921 	0.057993
36.75 	0.058455 	4944 	0.057507
36.79 	0.054257 	4921 	0.053543
36.83 	0.059207 	4915 	0.057895
36.87 	0.054814 	4944 	0.053985
36.91 	0.055252 	4941 	0.054778
36.95 	0.058180 	4933 	0.057586
36.99 	0.056332 	4935 	0.056095
37.03 	0.054224 	4924 	0.053629
37.07 	0.056332 	4935 	0.055126
37.11 	0.054914 	4935 	0.053964
37.15 	0.050723 	4909 	0.049769
37.19 	0.056244 	4925 	0.055273
37.23 	0.053274 	4918 	0.052678
37.27 	0.052922 	4894 	0.052204
37.31 	0.053901 	4935 	0.053426
37.35 	0.052450 	4938 	0.050889
37.39 	0.054756 	4931 	0.053805
37.43 	0.048865 	4932 	0.048033
37.47 	0.050314 	4929 	0.049720
37.51 	0.055544 	4933 	0.054476
37.55 	0.059432 	4930 	0.058481
37.59 	0.055748 	4915 	0.054437
37.63 	0.049807 	4919 	0.049211
37.67 	0.051183 	4904 	0.050347
37.71 	0.052343 	4929 	0.051511
37.75 	0.054656 	4940 	0.053589
37.79 	0.054767 	4930 	0.054173
37.83 	0.045528 	4920 	0.045409
37.87 	0.054869 	4939 	0.054276
37.91 	0.054361 	4930 	0.053292
37.95 	0.057712 	4921 	0.056760
37.99 	0.050489 	4912 	0.050131
38.03 	0.042575 	4909 	0.041859
38.07 	0.049094 	4909 	0.048497
38.11 	0.054306 	4935 	0.053099
38.15 	0.054900 	4918 	0.054424
38.19 	0.053550 	4930 	0.052837
38.23 	0.056906 	4938 	0.055957
38.27 	0.054564 	4930 	0.053970
38.31 	0.057439 	4927 	0.056250
38.35 	0.059050 	4928 	0.057505
38.39 	0.053982 	4909 	0.053147
38.43 	0.058177 	4916 	0.056490
38.47 	0.058692 	4907 	0.058214
38.51 	0.063666 	4932 	0.062953
38.55 	0.059968 	4936 	0.058781
38.59 	0.066613 	4924 	0.065899
38.63 	0.062348 	4924 	0.061634
38.67 	0.062994 	4937 	0.062400
38.71 	0.060317 	4924 	0.058889
38.75 	0.062513 	4927 	0.061680
38.79 	0.062627 	4934 	0.060846
38.83 	0.060378 	4919 	0.059187
38.87 	0.056200 	4911 	0.055346
38.91 	0.055272 	4903 	0.054436
38.95 	0.051240 	4918 	0.050764
38.99 	0.048815 	4937 	0.048340
39.03 	0.053912 	4934 	0.053081
39.07 	0.050162 	4924 	0.049568
39.11 	0.053539 	4931 	0.052945
39.15 	0.047406 	4915 	0.046671
39.19 	0.045353 	4917 	0.044400
39.23 	0.039594 	4925 	0.039118
39.27 	0.042159 	4910 	0.041562
39.31 	0.047912 	4884 	0.047792
39.35 	0.046606 	4935 	0.045656
39.39 	0.047880 	4929 	0.047405
39.43 	0.047841 	4933 	0.046535
39.47 	0.046516 	4923 	0.046040
39.51 	0.048538 	4924 	0.047467
39.55 	0.042488 	4919 	0.042131
39.59 	0.041938 	4912 	0.041342
39.63 	0.047948 	4922 	0.047115
39.67 	0.046204 	4913 	0.046204
39.71 	0.043922 	4895 	0.043683
39.75 	0.043831 	4928 	0.042504
39.79 	0.046488 	4926 	0.045775
39.83 	0.043373 	4934 	0.042641
39.87 	0.048731 	4925 	0.048374
39.91 	0.041243 	4922 	0.040529
39.95 	0.044964 	4915 	0.044249
39.99 	0.044607 	4932 	0.044132
40.03 	0.040787 	4928 	0.040550
40.07 	0.040219 	4923 	0.039743
40.11 	0.042514 	4916 	0.041799
40.15 	0.041930 	4913 	0.041095
40.19 	0.040576 	4929 	0.040220
40.23 	0.049473 	4932 	0.048285
40.27 	0.043549 	4937 	0.042955
40.31 	0.041101 	4939 	0.040746
40.35 	0.043098 	4919 	0.042622
40.39 	0.041371 	4931 	0.040777
40.43 	0.041040 	4922 	0.040564
40.47 	0.038837 	4918 	0.038122
40.51 	0.045104 	4922 	0.044628
40.55 	0.040139 	4908 	0.039900
40.59 	0.042131 	4937 	0.041775
40.63 	0.044422 	4930 	0.043590
40.67 	0.040957 	4932 	0.040838
40.71 	0.043187 	4932 	0.042950
40.75 	0.040560 	4931 	0.040184
40.79 	0.042445 	4924 	0.042088
40.83 	0.041396 	4928 	0.040445
40.87 	0.040787 	4928 	0.040550
40.91 	0.044891 	4923 	0.043701
40.95 	0.037859 	4913 	0.037620
40.99 	0.047116 	4924 	0.046878
41.03 	0.042813 	4905 	0.041600
41.07 	0.040771 	4930 	0.040533
41.11 	0.041135 	4935 	0.040660
41.15 	0.044323 	4941 	0.043730
41.19 	0.039148 	4930 	0.038792
41.23 	0.041304 	4939 	0.040829
41.27 	0.045630 	4931 	0.044204
41.31 	0.043381 	4933 	0.043025
41.35 	0.044957 	4938 	0.044127
41.39 	0.047436 	4933 	0.046723
41.43 	0.044634 	4929 	0.043802
41.47 	0.050751 	4926 	0.050038
41.51 	0.041498 	4940 	0.041261
41.55 	0.043364 	4935 	0.043008
41.59 	0.040543 	4933 	0.040187
41.63 	0.045362 	4938 	0.044532
41.67 	0.044939 	4940 	0.043872
41.71 	0.044994 	4934 	0.044756
41.75 	0.037330 	4929 	0.036855
41.79 	0.039442 	4944 	0.038968
41.83 	0.040179 	4928 	0.039703
41.87 	0.039311 	4935 	0.038955
41.91 	0.041126 	4936 	0.040177
41.95 	0.040357 	4931 	0.040119
41.99 	0.045464 	4905 	0.044986
42.03 	0.038267 	4939 	0.037911
42.07 	0.037472 	4937 	0.037235
42.11 	0.045096 	4945 	0.044385
42.15 	0.038275 	4938 	0.038037
42.19 	0.037897 	4908 	0.037778
42.23 	0.034137 	4892 	0.034018
42.27 	0.039598 	4874 	0.039357
42.31 	0.039753 	4855 	0.039391
42.35 	0.038446 	4838 	0.038446
42.39 	0.047044 	4804 	0.045765
42.43 	0.040693 	4792 	0.040204
42.47 	0.039035 	4765 	0.038789
42.51 	0.041957 	4743 	0.041586
42.55 	0.042906 	4708 	0.042657
42.59 	0.036160 	4729 	0.036036
42.63 	0.042897 	4709 	0.042275
42.67 	0.041204 	4684 	0.040704
42.71 	0.036886 	4663 	0.036886
42.75 	0.038337 	4617 	0.037702
42.79 	0.039939 	4582 	0.039683
42.83 	0.037257 	4536 	0.036612
42.87 	0.046899 	4499 	0.046118
42.91 	0.039048 	4456 	0.038391
42.95 	0.042799 	4416 	0.042534
42.99 	0.034208 	4385 	0.033807
43.03 	0.038772 	4333 	0.038367
43.07 	0.038408 	4296 	0.037999
43.11 	0.036193 	4255 	0.035917
43.15 	0.040418 	4206 	0.040001
43.19 	0.039819 	4194 	0.039400
43.23 	0.038999 	4154 	0.038293
43.27 	0.039951 	4105 	0.038952
43.31 	0.042167 	4079 	0.041306
43.35 	0.033730 	4032 	0.033585
43.39 	0.035232 	4002 	0.034623
43.43 	0.040909 	3960 	0.040293
43.47 	0.035195 	3921 	0.034896
43.51 	0.035079 	3877 	0.034625
43.55 	0.032726 	2964 	0.032726
43.59 	0.038946 	1746 	0.038611
43.63 	0.035964 	1001 	0.035964
43.67 	0.039841 	502 	0.039841
43.71 	0.046025 	239 	0.043574
43.75 	0.000000 	16 	0.000000