Folder: Bessy-II-KMC-II-insitu-sin2psi/Example_Data

Note: README.md
# Bessy-II-KMC-II-insitu-straining
 Dataanalysis of insitu2 experiments at the KMC-II beamline at Bessy II Syncrotron

File: 25SC_s1_0001.000.dat
#F C:\frames\spec\25SC_s1_0001.000
#C title =s:1 frm:0 25SC_s1
#C wavelength =0.15406

#S 1  fr_average C:\frames\spec\25SC_s1_0001.000 C:\win32app\speccom\mask.axs chi 0 180 0 360 0.02
#C 2 theta =0.000000 to 180 deg
#C   q   =0.000000 to 81.568 nm^-1
#C  chi  =0.000000 to 360 deg
#C collumns:
#C  1 position (2theta or chi in degrees)
#C  2 average intensity (sum of all counts in the region divided with number of pixels)
#C  3 Number of pixels in region)
#C  4 error (sum of sqrt(intensity) for all pixels divided by number)
#N 4
#L TTh  Int  N_pix  Err
32.99 	0.032787 	61 	0.032787
33.03 	0.023005 	1391 	0.023005
33.07 	0.038049 	2050 	0.038049
33.11 	0.031795 	2579 	0.031795
33.15 	0.035012 	2999 	0.035012
33.19 	0.039497 	3342 	0.038796
33.23 	0.035765 	3523 	0.035432
33.27 	0.033884 	3630 	0.033884
33.31 	0.039617 	3660 	0.038977
33.35 	0.036004 	3694 	0.035529
33.39 	0.041030 	3729 	0.040558
33.43 	0.032970 	3761 	0.032658
33.47 	0.035018 	3798 	0.034401
33.51 	0.034600 	3815 	0.033833
33.55 	0.030185 	3843 	0.029880
33.59 	0.031701 	3880 	0.031248
33.63 	0.030620 	3919 	0.030321
33.67 	0.032625 	3954 	0.032329
33.71 	0.038491 	3975 	0.038343
33.75 	0.034759 	3999 	0.034759
33.79 	0.036130 	4041 	0.035695
33.83 	0.031358 	4050 	0.031213
33.87 	0.027730 	4111 	0.027588
33.91 	0.035189 	4149 	0.034766
33.95 	0.032528 	4181 	0.032108
33.99 	0.030238 	4200 	0.029959
34.03 	0.032752 	4244 	0.032614
34.07 	0.035614 	4268 	0.035042
34.11 	0.039284 	4302 	0.039012
34.15 	0.037405 	4331 	0.036728
34.19 	0.036222 	4362 	0.035819
34.23 	0.037332 	4393 	0.036932
34.27 	0.029625 	4422 	0.029492
34.31 	0.032301 	4458 	0.032301
34.35 	0.030999 	4484 	0.030868
34.39 	0.031986 	4502 	0.031465
34.43 	0.033488 	4539 	0.033100
34.47 	0.033537 	4592 	0.033281
34.51 	0.034303 	4606 	0.033794
34.55 	0.033384 	4643 	0.033257
34.59 	0.038289 	4675 	0.037662
34.63 	0.033121 	4710 	0.032479
34.67 	0.037756 	4741 	0.036767
34.71 	0.035669 	4766 	0.035178
34.75 	0.035150 	4808 	0.035028
34.79 	0.031924 	4824 	0.031559
34.83 	0.036610 	4862 	0.036008
34.87 	0.034306 	4868 	0.033704
34.91 	0.033183 	4882 	0.032943
34.95 	0.032311 	4890 	0.031832
34.99 	0.027976 	4897 	0.027737
35.03 	0.036415 	4943 	0.036060
35.07 	0.035628 	4940 	0.035035
35.11 	0.035981 	4947 	0.035745
35.15 	0.034029 	4937 	0.033791
35.19 	0.031971 	4942 	0.031852
35.23 	0.035592 	4945 	0.035355
35.27 	0.033751 	4948 	0.033633
35.31 	0.036894 	4933 	0.036063
35.35 	0.031971 	4942 	0.031852
35.39 	0.033165 	4945 	0.032691
35.43 	0.033448 	4933 	0.032854
35.47 	0.029609 	4931 	0.029252
35.51 	0.031669 	4926 	0.031431
35.55 	0.032558 	4945 	0.032440
35.59 	0.031345 	4945 	0.030989
35.63 	0.032774 	4943 	0.032418
35.67 	0.033792 	4942 	0.033199
35.71 	0.033624 	4937 	0.033505
35.75 	0.039546 	4931 	0.039189
35.79 	0.031225 	4932 	0.030987
35.83 	0.035989 	4946 	0.035278
35.87 	0.034329 	4923 	0.034210
35.91 	0.038360 	4927 	0.038241
35.95 	0.031320 	4917 	0.031201
35.99 	0.031180 	4939 	0.031062
36.03 	0.035404 	4943 	0.035167
36.07 	0.032395 	4939 	0.032158
36.11 	0.027998 	4929 	0.027522
36.15 	0.028548 	4939 	0.028311
36.19 	0.036032 	4940 	0.035321
36.23 	0.037893 	4935 	0.037537
36.27 	0.033909 	4925 	0.033790
36.31 	0.034700 	4928 	0.034581
36.35 	0.036316 	4929 	0.035959
36.39 	0.031701 	4921 	0.030510
36.43 	0.035106 	4928 	0.034987
36.47 	0.032618 	4936 	0.032380
36.51 	0.033245 	4933 	0.033127
36.55 	0.030647 	4927 	0.030529
36.59 	0.033610 	4939 	0.033373
36.63 	0.032651 	4931 	0.032175
36.67 	0.033469 	4930 	0.033112
36.71 	0.031904 	4921 	0.031289
36.75 	0.037621 	4944 	0.036910
36.79 	0.036781 	4921 	0.036543
36.83 	0.029705 	4915 	0.029467
36.87 	0.037217 	4944 	0.036624
36.91 	0.034406 	4941 	0.034050
36.95 	0.040949 	4933 	0.040236
36.99 	0.033232 	4935 	0.032995
37.03 	0.031682 	4924 	0.031206
37.07 	0.032624 	4935 	0.032031
37.11 	0.032827 	4935 	0.032471
37.15 	0.037482 	4909 	0.037005
37.19 	0.030254 	4925 	0.030135
37.23 	0.034770 	4918 	0.034651
37.27 	0.033715 	4894 	0.033116
37.31 	0.036069 	4935 	0.035950
37.35 	0.035237 	4938 	0.034881
37.39 	0.032448 	4931 	0.032329
37.43 	0.033658 	4932 	0.033539
37.47 	0.032258 	4929 	0.031783
37.51 	0.032029 	4933 	0.031910
37.55 	0.033469 	4930 	0.032855
37.59 	0.029908 	4915 	0.029551
37.63 	0.033137 	4919 	0.032780
37.67 	0.032423 	4904 	0.032184
37.71 	0.030432 	4929 	0.030194
37.75 	0.032186 	4940 	0.031949
37.79 	0.035700 	4930 	0.035343
37.83 	0.029065 	4920 	0.029065
37.87 	0.030168 	4939 	0.029812
37.91 	0.030629 	4930 	0.030272
37.95 	0.032514 	4921 	0.032276
37.99 	0.030334 	4912 	0.029857
38.03 	0.029334 	4909 	0.029215
38.07 	0.029130 	4909 	0.028772
38.11 	0.033840 	4935 	0.033484
38.15 	0.033957 	4918 	0.033600
38.19 	0.033874 	4930 	0.033518
38.23 	0.035439 	4938 	0.035321
38.27 	0.037931 	4930 	0.037456
38.31 	0.035924 	4927 	0.035806
38.35 	0.047281 	4928 	0.046924
38.39 	0.041353 	4909 	0.040756
38.43 	0.042718 	4916 	0.042241
38.47 	0.054208 	4907 	0.052776
38.51 	0.046837 	4932 	0.046362
38.55 	0.049635 	4936 	0.048686
38.59 	0.044273 	4924 	0.043559
38.63 	0.042648 	4924 	0.041815
38.67 	0.039498 	4937 	0.039498
38.71 	0.042242 	4924 	0.041528
38.75 	0.034301 	4927 	0.033825
38.79 	0.034252 	4934 	0.033777
38.83 	0.032324 	4919 	0.032085
38.87 	0.033802 	4911 	0.033802
38.91 	0.029574 	4903 	0.029215
38.95 	0.025824 	4918 	0.025585
38.99 	0.026737 	4937 	0.026618
39.03 	0.028780 	4934 	0.028661
39.07 	0.028229 	4924 	0.027991
39.11 	0.030420 	4931 	0.029945
39.15 	0.024212 	4915 	0.024212
39.19 	0.025422 	4917 	0.025303
39.23 	0.026802 	4925 	0.026683
39.27 	0.026273 	4910 	0.025915
39.31 	0.025594 	4884 	0.025354
39.35 	0.024721 	4935 	0.024603
39.39 	0.026577 	4929 	0.026459
39.43 	0.031218 	4933 	0.030981
39.47 	0.026610 	4923 	0.026372
39.51 	0.027011 	4924 	0.026892
39.55 	0.022972 	4919 	0.022853
39.59 	0.025651 	4912 	0.025294
39.63 	0.025803 	4922 	0.025445
39.67 	0.023407 	4913 	0.023407
39.71 	0.023493 	4895 	0.023374
39.75 	0.026177 	4928 	0.025939
39.79 	0.028015 	4926 	0.028015
39.83 	0.027361 	4934 	0.027242
39.87 	0.021117 	4925 	0.021117
39.91 	0.023568 	4922 	0.023092
39.95 	0.030112 	4915 	0.030112
39.99 	0.027778 	4932 	0.027303
40.03 	0.022930 	4928 	0.022811
40.07 	0.026407 	4923 	0.026288
40.11 	0.025427 	4916 	0.025189
40.15 	0.020151 	4913 	0.020031
40.19 	0.021302 	4929 	0.021184
40.23 	0.024331 	4932 	0.024212
40.27 	0.023901 	4937 	0.023427
40.31 	0.023689 	4939 	0.023333
40.35 	0.024802 	4919 	0.024802
40.39 	0.025755 	4931 	0.025637
40.43 	0.025599 	4922 	0.025123
40.47 	0.023790 	4918 	0.023671
40.51 	0.026209 	4922 	0.026209
40.55 	0.026080 	4908 	0.025841
40.59 	0.025319 	4937 	0.024844
40.63 	0.027383 	4930 	0.026908
40.67 	0.022912 	4932 	0.022674
40.71 	0.022101 	4932 	0.021982
40.75 	0.024133 	4931 	0.024133
40.79 	0.025995 	4924 	0.025995
40.83 	0.024148 	4928 	0.023791
40.87 	0.021104 	4928 	0.020985
40.91 	0.023969 	4923 	0.023731
40.95 	0.021779 	4913 	0.021779
40.99 	0.024980 	4924 	0.024980
41.03 	0.022630 	4905 	0.022272
41.07 	0.026166 	4930 	0.026166
41.11 	0.021682 	4935 	0.021682
41.15 	0.025096 	4941 	0.025096
41.19 	0.024949 	4930 	0.024712
41.23 	0.026726 	4939 	0.026726
41.27 	0.024539 	4931 	0.024539
41.31 	0.026353 	4933 	0.026116
41.35 	0.025314 	4938 	0.025077
41.39 	0.023718 	4933 	0.023718
41.43 	0.023331 	4929 	0.023212
41.47 	0.019285 	4926 	0.019285
41.51 	0.022267 	4940 	0.022267
41.55 	0.023506 	4935 	0.023387
41.59 	0.026759 	4933 	0.026284
41.63 	0.022276 	4938 	0.022158
41.67 	0.026923 	4940 	0.026686
41.71 	0.022902 	4934 	0.022784
41.75 	0.020897 	4929 	0.020659
41.79 	0.026092 	4944 	0.025855
41.83 	0.023742 	4928 	0.023266
41.87 	0.027153 	4935 	0.026797
41.91 	0.023703 	4936 	0.023703
41.95 	0.024539 	4931 	0.024420
41.99 	0.020387 	4905 	0.020268
42.03 	0.022069 	4939 	0.021832
42.07 	0.024104 	4937 	0.024104
42.11 	0.019414 	4945 	0.019295
42.15 	0.020859 	4938 	0.020621
42.19 	0.023431 	4908 	0.023312
42.23 	0.022895 	4892 	0.022655
42.27 	0.024210 	4874 	0.023850
42.31 	0.023275 	4855 	0.023154
42.35 	0.022323 	4838 	0.022323
42.39 	0.019983 	4804 	0.019739
42.43 	0.023372 	4792 	0.023128
42.47 	0.023085 	4765 	0.022839
42.51 	0.023825 	4743 	0.023701
42.55 	0.022090 	4708 	0.021717
42.59 	0.022415 	4729 	0.022291
42.63 	0.023360 	4709 	0.022986
42.67 	0.016652 	4684 	0.016652
42.71 	0.022518 	4663 	0.021963
42.75 	0.023175 	4617 	0.023175
42.79 	0.018333 	4582 	0.018333
42.83 	0.020503 	4536 	0.020503
42.87 	0.023783 	4499 	0.023653
42.91 	0.025359 	4456 	0.024702
42.95 	0.025136 	4416 	0.024738
42.99 	0.020981 	4385 	0.020981
43.03 	0.021694 	4333 	0.021559
43.07 	0.019553 	4296 	0.019553
43.11 	0.021857 	4255 	0.021719
43.15 	0.021160 	4206 	0.021160
43.19 	0.023367 	4194 	0.023227
43.23 	0.021425 	4154 	0.021143
43.27 	0.021681 	4105 	0.021253
43.31 	0.021084 	4079 	0.020940
43.35 	0.024802 	4032 	0.024511
43.39 	0.021239 	4002 	0.021093
43.43 	0.023990 	3960 	0.023694
43.47 	0.019638 	3921 	0.019488
43.51 	0.014444 	3877 	0.014444
43.55 	0.022605 	2964 	0.022407
43.59 	0.021764 	1746 	0.021764
43.63 	0.018981 	1001 	0.018981
43.67 	0.017928 	502 	0.017928
43.71 	0.025105 	239 	0.025105
43.75 	0.000000 	16 	0.000000

File: 25SC_s1_0002.000.dat
#F C:\frames\spec\25SC_s1_0002.000
#C title =s:2 frm:0 25SC_s1
#C wavelength =0.15406

#S 1  fr_average C:\frames\spec\25SC_s1_0002.000 C:\win32app\speccom\mask.axs chi 0 180 0 360 0.02
#C 2 theta =0.000000 to 180 deg
#C   q   =0.000000 to 81.568 nm^-1
#C  chi  =0.000000 to 360 deg
#C collumns:
#C  1 position (2theta or chi in degrees)
#C  2 average intensity (sum of all counts in the region divided with number of pixels)
#C  3 Number of pixels in region)
#C  4 error (sum of sqrt(intensity) for all pixels divided by number)
#N 4
#L TTh  Int  N_pix  Err
32.99 	0.098361 	61 	0.098361
33.03 	0.076204 	1391 	0.074941
33.07 	0.069268 	2050 	0.067554
33.11 	0.072121 	2579 	0.069850
33.15 	0.070023 	2999 	0.068851
33.19 	0.078695 	3342 	0.078345
33.23 	0.070395 	3523 	0.068704
33.27 	0.076860 	3630 	0.075246
33.31 	0.068306 	3660 	0.067826
33.35 	0.070114 	3694 	0.068687
33.39 	0.065701 	3729 	0.064079
33.43 	0.069131 	3761 	0.067885
33.47 	0.075566 	3798 	0.073870
33.51 	0.074967 	3815 	0.072332
33.55 	0.074161 	3843 	0.072637
33.59 	0.078093 	3880 	0.075677
33.63 	0.068385 	3919 	0.066890
33.67 	0.075620 	3954 	0.074434
33.71 	0.073711 	3975 	0.072090
33.75 	0.073268 	3999 	0.071486
33.79 	0.069537 	4041 	0.067943
33.83 	0.064198 	4050 	0.063185
33.87 	0.079543 	4111 	0.077548
33.91 	0.072307 	4149 	0.070471
33.95 	0.070796 	4181 	0.069676
33.99 	0.074524 	4200 	0.072525
34.03 	0.068332 	4244 	0.066929
34.07 	0.072634 	4268 	0.070849
34.11 	0.069270 	4302 	0.067228
34.15 	0.071808 	4331 	0.070568
34.19 	0.073819 	4362 	0.072432
34.23 	0.077851 	4393 	0.075584
34.27 	0.071687 	4422 	0.071025
34.31 	0.070884 	4458 	0.069307
34.35 	0.072926 	4484 	0.071358
34.39 	0.070413 	4502 	0.068310
34.43 	0.071822 	4539 	0.070402
34.47 	0.069686 	4592 	0.068156
34.51 	0.070343 	4606 	0.068817
34.55 	0.063967 	4643 	0.062579
34.59 	0.081070 	4675 	0.079315
34.63 	0.068365 	4710 	0.067370
34.67 	0.070660 	4741 	0.069425
34.71 	0.069660 	4766 	0.067816
34.75 	0.064060 	4808 	0.062842
34.79 	0.069030 	4824 	0.067067
34.83 	0.071370 	4862 	0.070045
34.87 	0.072514 	4868 	0.071311
34.91 	0.073945 	4882 	0.071526
34.95 	0.078528 	4890 	0.076731
34.99 	0.073310 	4897 	0.071516
35.03 	0.077079 	4943 	0.075637
35.07 	0.068421 	4940 	0.066880
35.11 	0.066303 	4947 	0.065592
35.15 	0.068463 	4937 	0.067494
35.19 	0.078511 	4942 	0.077661
35.23 	0.076643 	4945 	0.074985
35.27 	0.075384 	4948 	0.073470
35.31 	0.076221 	4933 	0.075153
35.35 	0.067786 	4942 	0.066344
35.39 	0.072396 	4945 	0.070718
35.43 	0.074194 	4933 	0.072769
35.47 	0.068140 	4931 	0.067428
35.51 	0.068413 	4926 	0.067104
35.55 	0.075025 	4945 	0.073821
35.59 	0.076643 	4945 	0.075676
35.63 	0.070200 	4943 	0.069252
35.67 	0.071024 	4942 	0.070313
35.71 	0.071096 	4937 	0.068485
35.75 	0.070168 	4931 	0.069218
35.79 	0.069140 	4932 	0.068428
35.83 	0.079256 	4946 	0.077460
35.87 	0.076376 	4923 	0.074115
35.91 	0.073270 	4927 	0.070872
35.95 	0.075453 	4917 	0.073785
35.99 	0.073294 	4939 	0.071614
36.03 	0.070807 	4943 	0.069622
36.07 	0.074307 	4939 	0.072172
36.11 	0.068574 	4929 	0.067385
36.15 	0.070055 	4939 	0.068612
36.19 	0.078340 	4940 	0.077036
36.23 	0.072340 	4935 	0.071510
36.27 	0.075127 	4925 	0.073700
36.31 	0.073255 	4928 	0.071452
36.35 	0.080747 	4929 	0.079202
36.39 	0.073969 	4921 	0.072164
36.43 	0.071023 	4928 	0.069240
36.47 	0.074352 	4936 	0.072671
36.51 	0.064058 	4933 	0.063346
36.55 	0.070225 	4927 	0.067966
36.59 	0.076736 	4939 	0.074245
36.63 	0.076252 	4931 	0.075421
36.67 	0.083570 	4930 	0.082025
36.71 	0.075188 	4921 	0.073998
36.75 	0.068972 	4944 	0.067294
36.79 	0.073969 	4921 	0.073612
36.83 	0.076704 	4915 	0.074797
36.87 	0.073625 	4944 	0.072084
36.91 	0.081765 	4941 	0.079749
36.95 	0.079668 	4933 	0.078005
36.99 	0.077204 	4935 	0.075661
37.03 	0.076564 	4924 	0.075017
37.07 	0.073759 	4935 	0.072097
37.11 	0.080851 	4935 	0.078952
37.15 	0.071501 	4909 	0.069930
37.19 	0.069239 	4925 	0.067930
37.23 	0.070557 	4918 	0.069604
37.27 	0.073968 	4894 	0.072053
37.31 	0.070517 	4935 	0.068618
37.35 	0.071081 	4938 	0.070350
37.39 	0.071385 	4931 	0.070078
37.43 	0.070762 	4932 	0.069693
37.47 	0.071008 	4929 	0.070058
37.51 	0.069532 	4933 	0.068463
37.55 	0.076268 	4930 	0.075198
37.59 	0.068566 	4915 	0.067851
37.63 	0.058752 	4919 	0.057799
37.67 	0.067292 	4904 	0.066456
37.71 	0.063502 	4929 	0.062432
37.75 	0.072267 	4940 	0.071180
37.79 	0.067951 	4930 	0.067001
37.83 	0.069309 	4920 	0.067880
37.87 	0.067423 	4939 	0.065980
37.91 	0.066126 	4930 	0.065056
37.95 	0.065231 	4921 	0.064754
37.99 	0.066164 	4912 	0.064853
38.03 	0.064168 	4909 	0.062975
38.07 	0.073335 	4909 	0.072002
38.11 	0.071935 	4935 	0.070392
38.15 	0.071980 	4918 	0.069698
38.19 	0.075862 	4930 	0.074555
38.23 	0.087080 	4938 	0.085656
38.27 	0.078296 	4930 	0.076989
38.31 	0.077532 	4927 	0.076105
38.35 	0.090097 	4928 	0.087205
38.39 	0.096150 	4909 	0.093505
38.43 	0.097437 	4916 	0.093743
38.47 	0.094355 	4907 	0.092306
38.51 	0.096918 	4932 	0.094048
38.55 	0.101702 	4936 	0.098558
38.59 	0.091998 	4924 	0.089857
38.63 	0.090171 	4924 	0.087791
38.67 	0.091756 	4937 	0.089601
38.71 	0.087937 	4924 	0.085280
38.75 	0.078750 	4927 	0.076847
38.79 	0.063235 	4934 	0.062166
38.83 	0.066274 	4919 	0.065659
38.87 	0.073101 	4911 	0.070835
38.91 	0.064246 	4903 	0.062932
38.95 	0.061000 	4918 	0.059551
38.99 	0.068058 	4937 	0.066396
39.03 	0.059181 	4934 	0.058588
39.07 	0.060723 	4924 	0.059890
39.11 	0.055567 	4931 	0.054498
39.15 	0.059410 	4915 	0.058576
39.19 	0.058979 	4917 	0.057430
39.23 	0.054822 	4925 	0.053752
39.27 	0.058656 	4910 	0.057940
39.31 	0.054668 	4884 	0.053589
39.35 	0.055319 	4935 	0.054370
39.39 	0.059241 	4929 	0.058409
39.43 	0.058990 	4933 	0.058040
39.47 	0.057079 	4923 	0.056960
39.51 	0.063363 	4924 	0.062035
39.55 	0.052246 	4919 	0.051294
39.59 	0.053339 	4912 	0.052504
39.63 	0.058106 	4922 	0.057511
39.67 	0.058009 	4913 	0.057294
39.71 	0.054750 	4895 	0.053673
39.75 	0.053166 	4928 	0.052096
39.79 	0.054811 	4926 	0.054098
39.83 	0.054520 	4934 	0.053332
39.87 	0.055838 	4925 	0.054529
39.91 	0.055059 	4922 	0.053730
39.95 	0.053306 	4915 	0.052114
39.99 	0.055758 	4932 	0.054689
40.03 	0.059253 	4928 	0.058302
40.07 	0.057485 	4923 	0.056295
40.11 	0.048820 	4916 	0.047867
40.15 	0.052310 	4913 	0.052072
40.19 	0.057415 	4929 	0.056821
40.23 	0.059408 	4932 	0.058458
40.27 	0.052866 	4937 	0.052510
40.31 	0.053250 	4939 	0.052419
40.35 	0.052246 	4919 	0.051651
40.39 	0.055770 	4931 	0.054700
40.43 	0.054449 	4922 	0.053735
40.47 	0.056730 	4918 	0.055777
40.51 	0.044494 	4922 	0.043661
40.55 	0.053790 	4908 	0.053312
40.59 	0.050030 	4937 	0.049318
40.63 	0.052535 	4930 	0.052060
40.67 	0.050487 	4932 	0.049655
40.71 	0.053325 	4932 	0.052494
40.75 	0.047252 	4931 	0.046421
40.79 	0.051990 	4924 	0.050920
40.83 	0.055601 	4928 	0.054650
40.87 	0.049513 	4928 	0.049156
40.91 	0.056673 	4923 	0.055483
40.95 	0.053124 	4913 	0.052528
40.99 	0.053412 	4924 	0.052817
41.03 	0.054842 	4905 	0.053767
41.07 	0.056795 	4930 	0.056201
41.11 	0.056535 	4935 	0.055823
41.15 	0.049585 	4941 	0.048755
41.19 	0.053753 	4930 	0.052307
41.23 	0.054262 	4939 	0.053056
41.27 	0.049686 	4931 	0.048973
41.31 	0.050071 	4933 	0.049952
41.35 	0.054678 	4938 	0.053610
41.39 	0.050071 	4933 	0.049240
41.43 	0.050923 	4929 	0.050804
41.47 	0.053390 	4926 	0.052439
41.51 	0.051215 	4940 	0.050622
41.55 	0.054711 	4935 	0.053267
41.59 	0.052909 	4933 	0.051721
41.63 	0.050223 	4938 	0.049511
41.67 	0.053644 	4940 	0.052932
41.71 	0.049858 	4934 	0.049027
41.75 	0.048691 	4929 	0.048216
41.79 	0.055421 	4944 	0.054236
41.83 	0.052557 	4928 	0.051844
41.87 	0.048632 	4935 	0.047920
41.91 	0.049028 	4936 	0.048315
41.95 	0.048874 	4931 	0.047924
41.99 	0.050968 	4905 	0.050252
42.03 	0.056489 	4939 	0.055659
42.07 	0.043751 	4937 	0.042921
42.11 	0.045298 	4945 	0.044706
42.15 	0.047995 	4938 	0.047165
42.19 	0.053178 	4908 	0.052224
42.23 	0.049264 	4892 	0.048665
42.27 	0.047600 	4874 	0.046999
42.31 	0.046550 	4855 	0.046067
42.35 	0.052914 	4838 	0.051946
42.39 	0.046211 	4804 	0.044972
42.43 	0.050918 	4792 	0.050307
42.47 	0.052886 	4765 	0.050898
42.51 	0.044276 	4743 	0.043782
42.55 	0.044817 	4708 	0.044568
42.59 	0.047579 	4729 	0.046836
42.63 	0.052877 	4709 	0.051758
42.67 	0.043766 	4684 	0.043141
42.71 	0.045250 	4663 	0.044370
42.75 	0.047433 	4617 	0.046672
42.79 	0.046923 	4582 	0.046156
42.83 	0.046076 	4536 	0.045559
42.87 	0.044677 	4499 	0.043614
42.91 	0.051840 	4456 	0.051314
42.95 	0.056386 	4416 	0.055590
42.99 	0.043101 	4385 	0.042567
43.03 	0.047773 	4333 	0.046804
43.07 	0.042365 	4296 	0.042092
43.11 	0.047709 	4255 	0.047020
43.15 	0.043747 	4206 	0.043329
43.19 	0.049833 	4194 	0.048995
43.23 	0.048387 	4154 	0.047682
43.27 	0.050914 	4105 	0.049915
43.31 	0.047070 	4079 	0.046209
43.35 	0.044395 	4032 	0.043233
43.39 	0.050475 	4002 	0.049450
43.43 	0.043182 	3960 	0.042738
43.47 	0.043356 	3921 	0.042460
43.51 	0.042559 	3877 	0.042256
43.55 	0.051282 	2964 	0.050294
43.59 	0.049828 	1746 	0.047815
43.63 	0.048951 	1001 	0.048366
43.67 	0.045817 	502 	0.043483
43.71 	0.029289 	239 	0.029289
43.75 	0.000000 	16 	0.000000