Folder: Bessy-II-KMC-II-insitu-sin2psi/Example_Data (part 101)

File: 25SC_s1_0040.004.dat
#F C:\frames\spec\25SC_s1_0040.004
#C title =s:40 frm:4 25SC_s1
#C wavelength =0.15406

#S 1  fr_average C:\frames\spec\25SC_s1_0040.004 C:\win32app\speccom\mask.axs chi 0 180 0 360 0.02
#C 2 theta =0.000000 to 180 deg
#C   q   =0.000000 to 81.568 nm^-1
#C  chi  =0.000000 to 360 deg
#C collumns:
#C  1 position (2theta or chi in degrees)
#C  2 average intensity (sum of all counts in the region divided with number of pixels)
#C  3 Number of pixels in region)
#C  4 error (sum of sqrt(intensity) for all pixels divided by number)
#N 4
#L TTh  Int  N_pix  Err
32.99 	0.098361 	61 	0.088758
33.03 	0.065421 	1391 	0.063315
33.07 	0.049268 	2050 	0.048983
33.11 	0.060101 	2579 	0.059192
33.15 	0.060687 	2999 	0.059710
33.19 	0.062837 	3342 	0.062107
33.23 	0.051944 	3523 	0.051612
33.27 	0.052617 	3630 	0.051326
33.31 	0.064754 	3660 	0.063794
33.35 	0.058744 	3694 	0.056524
33.39 	0.061947 	3729 	0.060219
33.43 	0.052911 	3761 	0.051484
33.47 	0.056082 	3798 	0.054360
33.51 	0.062385 	3815 	0.062078
33.55 	0.059329 	3843 	0.058414
33.59 	0.059278 	3880 	0.058523
33.63 	0.054606 	3919 	0.053858
33.67 	0.056904 	3954 	0.056460
33.71 	0.058365 	3975 	0.057481
33.75 	0.064516 	3999 	0.062758
33.79 	0.055927 	4041 	0.055492
33.83 	0.058025 	4050 	0.056868
33.87 	0.060326 	4111 	0.059329
33.91 	0.057845 	4149 	0.056857
33.95 	0.057403 	4181 	0.056702
33.99 	0.055238 	4200 	0.054122
34.03 	0.063619 	4244 	0.062101
34.07 	0.051546 	4268 	0.050997
34.11 	0.060902 	4302 	0.060085
34.15 	0.060032 	4331 	0.059627
34.19 	0.057542 	4362 	0.056737
34.23 	0.054632 	4393 	0.053832
34.27 	0.051560 	4422 	0.050236
34.31 	0.062584 	4458 	0.062059
34.35 	0.068020 	4484 	0.066300
34.39 	0.060640 	4502 	0.058948
34.43 	0.061908 	4539 	0.060875
34.47 	0.060322 	4592 	0.059429
34.51 	0.060790 	4606 	0.059498
34.55 	0.057937 	4643 	0.057054
34.59 	0.063957 	4675 	0.062830
34.63 	0.063057 	4710 	0.062062
34.67 	0.057794 	4741 	0.057052
34.71 	0.058749 	4766 	0.057643
34.75 	0.060732 	4808 	0.059636
34.79 	0.050580 	4824 	0.049852
34.83 	0.060263 	4862 	0.059299
34.87 	0.059367 	4868 	0.058525
34.91 	0.061041 	4882 	0.059841
34.95 	0.057669 	4890 	0.057429
34.99 	0.055748 	4897 	0.054791
35.03 	0.058871 	4943 	0.057686
35.07 	0.059919 	4940 	0.059326
35.11 	0.058419 	4947 	0.057472
35.15 	0.059348 	4937 	0.058161
35.19 	0.057669 	4942 	0.056346
35.23 	0.052781 	4945 	0.051596
35.27 	0.058812 	4948 	0.057628
35.31 	0.062234 	4933 	0.061046
35.35 	0.056455 	4942 	0.055862
35.39 	0.055410 	4945 	0.054462
35.43 	0.063248 	4933 	0.062179
35.47 	0.058406 	4931 	0.057456
35.51 	0.058465 	4926 	0.057276
35.55 	0.056016 	4945 	0.054832
35.59 	0.058038 	4945 	0.057091
35.63 	0.056241 	4943 	0.055649
35.67 	0.059895 	4942 	0.058709
35.71 	0.054487 	4937 	0.054012
35.75 	0.061854 	4931 	0.060784
35.79 	0.059002 	4932 	0.058527
35.83 	0.062273 	4946 	0.061088
35.87 	0.057892 	4923 	0.056563
35.91 	0.060280 	4927 	0.059210
35.95 	0.052064 	4917 	0.051230
35.99 	0.057906 	4939 	0.056720
36.03 	0.062310 	4943 	0.061481
36.07 	0.065398 	4939 	0.064805
36.11 	0.060864 	4929 	0.060389
36.15 	0.060741 	4939 	0.059387
36.19 	0.058300 	4940 	0.057470
36.23 	0.064438 	4935 	0.063943
36.27 	0.056853 	4925 	0.056020
36.31 	0.063515 	4928 	0.062782
36.35 	0.059647 	4929 	0.058696
36.39 	0.057509 	4921 	0.056318
36.43 	0.052760 	4928 	0.051809
36.47 	0.053890 	4936 	0.052703
36.51 	0.059396 	4933 	0.058208
36.55 	0.054394 	4927 	0.053681
36.59 	0.058514 	4939 	0.057209
36.63 	0.054147 	4931 	0.053434
36.67 	0.055375 	4930 	0.053949
36.71 	0.057712 	4921 	0.057117
36.75 	0.052791 	4944 	0.052317
36.79 	0.054664 	4921 	0.053711
36.83 	0.058800 	4915 	0.057965
36.87 	0.061691 	4944 	0.060388
36.91 	0.058895 	4941 	0.057947
36.95 	0.047841 	4933 	0.047010
36.99 	0.049037 	4935 	0.048444
37.03 	0.052396 	4924 	0.051207
37.07 	0.049037 	4935 	0.048563
37.11 	0.055117 	4935 	0.054167
37.15 	0.061316 	4909 	0.060481
37.19 	0.054010 	4925 	0.053415
37.23 	0.051037 	4918 	0.050084
37.27 	0.053944 	4894 	0.053225
37.31 	0.053495 	4935 	0.052783
37.35 	0.054881 	4938 	0.053912
37.39 	0.047860 	4931 	0.047504
37.43 	0.056975 	4932 	0.055886
37.47 	0.047271 	4929 	0.046677
37.51 	0.058990 	4933 	0.058397
37.55 	0.054361 	4930 	0.053510
37.59 	0.055544 	4915 	0.054233
37.63 	0.050417 	4919 	0.049107
37.67 	0.054445 	4904 	0.053490
37.71 	0.057821 	4929 	0.056851
37.75 	0.050000 	4940 	0.048814
37.79 	0.054361 	4930 	0.053153
37.83 	0.054472 	4920 	0.053638
37.87 	0.049403 	4939 	0.049047
37.91 	0.055375 	4930 	0.054544
37.95 	0.059947 	4921 	0.058162
37.99 	0.057003 	4912 	0.056407
38.03 	0.055408 	4909 	0.054454
38.07 	0.047871 	4909 	0.047036
38.11 	0.053698 	4935 	0.052492
38.15 	0.054900 	4918 	0.053590
38.19 	0.054158 	4930 	0.053445
38.23 	0.058323 	4938 	0.057473
38.27 	0.062475 	4930 	0.061168
38.31 	0.064745 	4927 	0.063794
38.35 	0.056412 	4928 	0.055105
38.39 	0.060501 	4909 	0.059408
38.43 	0.063873 	4916 	0.062443
38.47 	0.065824 	4907 	0.063437
38.51 	0.069343 	4932 	0.068393
38.55 	0.069895 	4936 	0.067976
38.59 	0.063363 	4924 	0.062292
38.63 	0.061942 	4924 	0.060871
38.67 	0.061171 	4937 	0.060340
38.71 	0.061942 	4924 	0.060990
38.75 	0.060686 	4927 	0.059735
38.79 	0.058776 	4934 	0.058182
38.83 	0.056922 	4919 	0.055969
38.87 	0.053146 	4911 	0.052430
38.91 	0.057720 	4903 	0.056625
38.95 	0.055714 	4918 	0.054880
38.99 	0.051651 	4937 	0.051295
39.03 	0.057357 	4934 	0.056407
39.07 	0.052193 	4924 	0.051599
39.11 	0.055770 	4931 	0.054938
39.15 	0.054730 	4915 	0.053539
39.19 	0.051861 	4917 	0.050908
39.23 	0.050964 	4925 	0.050013
39.27 	0.048269 	4910 	0.047911
39.31 	0.052007 	4884 	0.051287
39.35 	0.051874 	4935 	0.050925
39.39 	0.061067 	4929 	0.059978
39.43 	0.050476 	4933 	0.049764
39.47 	0.054438 	4923 	0.053962
39.51 	0.056458 	4924 	0.055863
39.55 	0.057735 	4919 	0.056544
39.59 	0.049267 	4912 	0.048552
39.63 	0.052824 	4922 	0.052229
39.67 	0.057602 	4913 	0.056529
39.71 	0.054341 	4895 	0.053144
39.75 	0.061485 	4928 	0.060158
39.79 	0.053390 	4926 	0.052538
39.83 	0.049858 	4934 	0.049146
39.87 	0.057056 	4925 	0.055747
39.91 	0.055668 	4922 	0.055192
39.95 	0.050661 	4915 	0.049946
39.99 	0.056772 	4932 	0.056059
40.03 	0.053571 	4928 	0.052125
40.07 	0.053016 	4923 	0.052184
40.11 	0.052075 	4916 	0.051241
40.15 	0.052514 	4913 	0.051560
40.19 	0.052952 	4929 	0.052477
40.23 	0.052920 	4932 	0.052326
40.27 	0.055094 	4937 	0.054382
40.31 	0.056894 	4939 	0.055333
40.35 	0.054076 	4919 	0.053242
40.39 	0.050700 	4931 	0.049987
40.43 	0.056684 	4922 	0.055970
40.47 	0.054697 	4918 	0.054101
40.51 	0.059935 	4922 	0.058864
40.55 	0.052363 	4908 	0.051767
40.59 	0.050638 	4937 	0.049926
40.63 	0.048276 	4930 	0.047563
40.67 	0.052514 	4932 	0.051920
40.71 	0.050081 	4932 	0.049725
40.75 	0.052525 	4931 	0.051199
40.79 	0.049756 	4924 	0.048805
40.83 	0.056615 	4928 	0.056140
40.87 	0.051136 	4928 	0.050542
40.91 	0.054845 	4923 	0.054369
40.95 	0.052717 	4913 	0.051883
40.99 	0.053006 	4924 	0.052530
41.03 	0.052803 	4905 	0.052087
41.07 	0.051521 	4930 	0.051046
41.11 	0.056130 	4935 	0.055299
41.15 	0.055252 	4941 	0.054659
41.19 	0.046450 	4930 	0.045619
41.23 	0.056287 	4939 	0.054863
41.27 	0.047455 	4931 	0.046742
41.31 	0.050071 	4933 	0.049477
41.35 	0.048198 	4938 	0.047486
41.39 	0.048044 	4933 	0.047806
41.43 	0.051938 	4929 	0.050967
41.47 	0.050548 	4926 	0.049954
41.51 	0.047571 	4940 	0.047452
41.55 	0.049037 	4935 	0.048919
41.59 	0.048044 	4933 	0.047213
41.63 	0.051640 	4938 	0.050691
41.67 	0.048381 	4940 	0.047195
41.71 	0.046007 	4934 	0.045176
41.75 	0.047068 	4929 	0.046712
41.79 	0.046521 	4944 	0.045692
41.83 	0.047078 	4928 	0.046464
41.87 	0.048632 	4935 	0.047920
41.91 	0.051459 	4936 	0.050509
41.95 	0.040357 	4931 	0.039763
41.99 	0.044241 	4905 	0.043166
42.03 	0.049403 	4939 	0.048691
42.07 	0.043144 	4937 	0.042550
42.11 	0.044489 	4945 	0.043423
42.15 	0.047995 	4938 	0.047046
42.19 	0.047881 	4908 	0.046926
42.23 	0.048038 	4892 	0.047080
42.27 	0.044727 	4874 	0.044367
42.31 	0.046962 	4855 	0.046841
42.35 	0.043613 	4838 	0.043129
42.39 	0.046836 	4804 	0.045840
42.43 	0.047162 	4792 	0.046673
42.47 	0.052046 	4765 	0.051042
42.51 	0.044065 	4743 	0.043571
42.55 	0.046304 	4708 	0.045931
42.59 	0.044195 	4729 	0.043432
42.63 	0.053090 	4709 	0.052592
42.67 	0.050598 	4684 	0.049347
42.71 	0.049324 	4663 	0.048571
42.75 	0.046134 	4617 	0.045753
42.79 	0.047796 	4582 	0.047284
42.83 	0.052249 	4536 	0.051086
42.87 	0.040231 	4499 	0.039841
42.91 	0.043312 	4456 	0.043049
42.95 	0.051630 	4416 	0.050702
42.99 	0.046294 	4385 	0.046027
43.03 	0.048465 	4333 	0.048060
43.07 	0.045624 	4296 	0.045078
43.11 	0.047944 	4255 	0.046980
43.15 	0.048502 	4206 	0.048084
43.19 	0.046495 	4194 	0.045797
43.23 	0.041406 	4154 	0.040983
43.27 	0.042387 	4105 	0.042102
43.31 	0.051728 	4079 	0.050292
43.35 	0.049107 	4032 	0.048671
43.39 	0.042729 	4002 	0.042290
43.43 	0.049242 	3960 	0.047615
43.47 	0.044376 	3921 	0.043928
43.51 	0.044364 	3877 	0.044213
43.55 	0.051619 	2964 	0.051619
43.59 	0.048110 	1746 	0.046768
43.63 	0.042957 	1001 	0.042372
43.67 	0.041833 	502 	0.040666
43.71 	0.050209 	239 	0.050209
43.75 	0.000000 	16 	0.000000

File: 25SC_s1_0041.000.dat
#F C:\frames\spec\25SC_s1_0041.000
#C title =s:41 frm:0 25SC_s1
#C wavelength =0.15406

#S 1  fr_average C:\frames\spec\25SC_s1_0041.000 C:\win32app\speccom\mask.axs chi 0 180 0 360 0.02
#C 2 theta =0.000000 to 180 deg
#C   q   =0.000000 to 81.568 nm^-1
#C  chi  =0.000000 to 360 deg
#C collumns:
#C  1 position (2theta or chi in degrees)
#C  2 average intensity (sum of all counts in the region divided with number of pixels)
#C  3 Number of pixels in region)
#C  4 error (sum of sqrt(intensity) for all pixels divided by number)
#N 4
#L TTh  Int  N_pix  Err
32.99 	0.049180 	61 	0.049180
33.03 	0.066858 	1391 	0.066437
33.07 	0.056585 	2050 	0.056300
33.11 	0.059325 	2579 	0.057508
33.15 	0.053685 	2999 	0.052513
33.19 	0.057750 	3342 	0.057224
33.23 	0.056202 	3523 	0.055204
33.27 	0.059229 	3630 	0.058906
33.31 	0.062842 	3660 	0.061881
33.35 	0.052247 	3694 	0.051454
33.39 	0.059802 	3729 	0.058676
33.43 	0.061686 	3761 	0.059947
33.47 	0.057925 	3798 	0.056691
33.51 	0.055046 	3815 	0.054432
33.55 	0.054645 	3843 	0.053578
33.59 	0.062371 	3880 	0.060559
33.63 	0.060475 	3919 	0.059727
33.67 	0.057916 	3954 	0.057323
33.71 	0.067421 	3975 	0.066390
33.75 	0.062266 	3999 	0.060947
33.79 	0.061618 	4041 	0.060314
33.83 	0.057037 	4050 	0.056145
33.87 	0.055947 	4111 	0.054808
33.91 	0.061702 	4149 	0.060572
33.95 	0.052380 	4181 	0.051096
33.99 	0.061190 	4200 	0.060493
34.03 	0.058200 	4244 	0.056543
34.07 	0.058575 	4268 	0.057889
34.11 	0.052069 	4302 	0.051116
34.15 	0.054953 	4331 	0.054141
34.19 	0.056167 	4362 	0.055093
34.23 	0.055543 	4393 	0.055143
34.27 	0.058118 	4422 	0.056507
34.31 	0.065725 	4458 	0.064673
34.35 	0.057538 	4484 	0.056341
34.39 	0.063305 	4502 	0.061853
34.43 	0.056620 	4539 	0.055846
34.47 	0.058798 	4592 	0.056694
34.51 	0.063830 	4606 	0.062685
34.55 	0.063321 	4643 	0.062438
34.59 	0.054545 	4675 	0.054295
34.63 	0.051805 	4710 	0.050810
34.67 	0.049989 	4741 	0.049372
34.71 	0.056232 	4766 	0.055125
34.75 	0.056780 	4808 	0.055664
34.79 	0.057836 	4824 	0.056986
34.83 	0.058001 	4862 	0.056916
34.87 	0.062654 	4868 	0.061932
34.91 	0.058583 	4882 	0.057363
34.95 	0.060123 	4890 	0.058685
34.99 	0.053094 	4897 	0.052017
35.03 	0.055230 	4943 	0.054282
35.07 	0.055263 	4940 	0.054670
35.11 	0.054376 	4947 	0.053548
35.15 	0.055297 	4937 	0.054091
35.19 	0.055038 	4942 	0.054209
35.23 	0.062690 	4945 	0.061387
35.27 	0.056993 	4948 	0.056401
35.31 	0.056761 	4933 	0.055692
35.35 	0.060299 	4942 	0.059588
35.39 	0.061476 	4945 	0.060410
35.43 	0.057571 	4933 	0.056621
35.47 	0.054350 	4931 	0.053281
35.51 	0.060089 	4926 	0.058900
35.55 	0.053387 	4945 	0.052440
35.59 	0.055410 	4945 	0.054936
35.63 	0.057455 	4943 	0.056744
35.67 	0.053420 	4942 	0.052590
35.71 	0.056715 	4937 	0.055528
35.75 	0.054756 	4931 	0.054043
35.79 	0.058800 	4932 	0.057612
35.83 	0.054387 	4946 	0.053558
35.87 	0.057485 	4923 	0.056771
35.91 	0.055206 	4927 	0.054255
35.95 	0.054708 	4917 	0.053259
35.99 	0.052035 	4939 	0.051086
36.03 	0.057657 	4943 	0.056591
36.07 	0.057502 	4939 	0.056553
36.11 	0.051532 	4929 	0.050700
36.15 	0.050820 	4939 	0.050227
36.19 	0.056478 	4940 	0.055529
36.23 	0.055117 	4935 	0.054286
36.27 	0.060305 	4925 	0.059234
36.31 	0.064529 	4928 	0.063697
36.35 	0.059038 	4929 	0.058088
36.39 	0.056289 	4921 	0.055337
36.43 	0.061485 	4928 	0.060416
36.47 	0.060373 	4936 	0.059423
36.51 	0.059193 	4933 	0.058124
36.55 	0.054597 	4927 	0.053408
36.59 	0.057704 	4939 	0.056637
36.63 	0.053336 	4931 	0.052267
36.67 	0.058012 	4930 	0.057062
36.71 	0.062182 	4921 	0.060754
36.75 	0.047532 	4944 	0.047058
36.79 	0.057712 	4921 	0.056502
36.83 	0.058393 	4915 	0.057678
36.87 	0.058455 	4944 	0.057270
36.91 	0.054442 	4941 	0.054087
36.95 	0.051287 	4933 	0.050694
36.99 	0.058359 	4935 	0.057765
37.03 	0.057880 	4924 	0.057047
37.07 	0.054306 	4935 	0.053356
37.11 	0.056738 	4935 	0.056500
37.15 	0.056427 	4909 	0.056069
37.19 	0.051371 	4925 	0.050776
37.23 	0.061000 	4918 	0.059928
37.27 	0.055374 	4894 	0.054656
37.31 	0.052077 	4935 	0.051127
37.35 	0.053058 	4938 	0.052208
37.39 	0.058000 	4931 	0.057387
37.43 	0.057786 	4932 	0.057073
37.47 	0.056807 	4929 	0.055975
37.51 	0.062031 	4933 	0.060962
37.55 	0.054970 	4930 	0.054257
37.59 	0.055951 	4915 	0.055236
37.63 	0.059768 	4919 	0.059173
37.67 	0.055261 	4904 	0.054286
37.71 	0.054981 	4929 	0.054010
37.75 	0.056275 	4940 	0.054714
37.79 	0.058012 	4930 	0.057042
37.83 	0.059350 	4920 	0.058159
37.87 	0.059931 	4939 	0.058508
37.91 	0.056795 	4930 	0.056201
37.95 	0.055273 	4921 	0.054678
37.99 	0.057410 	4912 	0.056198
38.03 	0.056631 	4909 	0.055676
38.07 	0.055612 	4909 	0.054777
38.11 	0.058764 	4935 	0.058052
38.15 	0.056324 	4918 	0.055609
38.19 	0.059026 	4930 	0.057719
38.23 	0.067841 	4938 	0.067248
38.27 	0.066531 	4930 	0.065343
38.31 	0.079562 	4927 	0.077501
38.35 	0.078125 	4928 	0.075629
38.39 	0.078835 	4909 	0.077045
38.43 	0.082587 	4916 	0.080800
38.47 	0.082331 	4907 	0.080899
38.51 	0.087794 	4932 	0.085379
38.55 	0.079417 	4936 	0.077617
38.59 	0.076970 	4924 	0.074710
38.63 	0.079001 	4924 	0.077554
38.67 	0.070083 	4937 	0.068897
38.71 	0.066816 	4924 	0.065983
38.75 	0.060483 	4927 	0.059156
38.79 	0.062627 	4934 	0.061914
38.83 	0.053263 	4919 	0.052429
38.87 	0.054979 	4911 	0.053786
38.91 	0.054049 	4903 	0.053451
38.95 	0.051647 	4918 	0.050813
38.99 	0.049828 	4937 	0.049235
39.03 	0.049453 	4934 	0.048384
39.07 	0.050366 	4924 	0.050128
39.11 	0.044007 	4931 	0.043295
39.15 	0.046185 	4915 	0.045112
39.19 	0.053081 	4917 	0.052247
39.23 	0.045482 	4925 	0.044888
39.27 	0.049084 	4910 	0.048726
39.31 	0.045250 	4884 	0.044650
39.35 	0.048024 	4935 	0.047550
39.39 	0.050517 	4929 	0.049329
39.43 	0.042976 	4933 	0.042738
39.47 	0.045094 	4923 	0.044500
39.51 	0.044273 	4924 	0.044035
39.55 	0.040659 	4919 	0.040063
39.59 	0.043160 	4912 	0.042086
39.63 	0.048151 	4922 	0.047556
39.67 	0.048850 	4913 	0.048612
39.71 	0.048417 	4895 	0.047938
39.75 	0.045860 	4928 	0.045147
39.79 	0.044052 	4926 	0.043101
39.83 	0.043981 	4934 	0.043506
39.87 	0.049137 	4925 	0.048661
39.91 	0.040431 	4922 	0.039836
39.95 	0.049034 	4915 	0.048557
39.99 	0.044809 	4932 	0.044097
40.03 	0.043425 	4928 	0.042950
40.07 	0.043063 	4923 	0.042111
40.11 	0.045362 	4916 	0.044528
40.15 	0.047629 	4913 	0.047271
40.19 	0.039968 	4929 	0.039611
40.23 	0.039132 	4932 	0.038776
40.27 	0.040510 	4937 	0.040392
40.31 	0.043126 	4939 	0.042770
40.35 	0.046148 	4919 	0.045671
40.39 	0.042993 	4931 	0.042637
40.43 	0.044088 	4922 	0.043136
40.47 	0.041684 	4918 	0.040850
40.51 	0.043885 	4922 	0.043528
40.55 	0.044214 	4908 	0.043736
40.59 	0.039903 	4937 	0.039310
40.63 	0.041785 	4930 	0.041547
40.67 	0.041768 	4932 	0.041174
40.71 	0.043796 	4932 	0.043202
40.75 	0.045224 	4931 	0.044017
40.79 	0.039399 	4924 	0.039042
40.83 	0.041599 	4928 	0.040886
40.87 	0.044440 	4928 	0.043964
40.91 	0.044079 	4923 	0.043484
40.95 	0.042337 	4913 	0.041721
40.99 	0.040008 	4924 	0.039513
41.03 	0.046891 	4905 	0.046652
41.07 	0.042191 	4930 	0.041715
41.11 	0.044174 	4935 	0.043462
41.15 	0.042704 	4941 	0.042467
41.19 	0.041379 	4930 	0.040666
41.23 	0.040899 	4939 	0.040780
41.27 	0.041979 	4931 	0.041979
41.31 	0.044395 	4933 	0.043564
41.35 	0.042730 	4938 	0.042255
41.39 	0.044395 	4933 	0.043564
41.43 	0.043011 	4929 	0.042892
41.47 	0.043849 	4926 	0.043254
41.51 	0.040486 	4940 	0.040012
41.55 	0.041135 	4935 	0.040660
41.59 	0.032840 	4933 	0.032484
41.63 	0.039085 	4938 	0.038492
41.67 	0.041700 	4940 	0.041226
41.71 	0.041954 	4934 	0.041123
41.75 	0.037127 	4929 	0.036771
41.79 	0.046117 	4944 	0.045761
41.83 	0.037744 	4928 	0.036793
41.87 	0.045998 	4935 	0.045523
41.91 	0.044773 	4936 	0.044417
41.95 	0.042182 	4931 	0.041826
41.99 	0.044241 	4905 	0.043643
42.03 	0.044138 	4939 	0.043783
42.07 	0.042536 	4937 	0.042180
42.11 	0.040849 	4945 	0.040376
42.15 	0.037667 	4938 	0.037193
42.19 	0.037490 	4908 	0.037251
42.23 	0.038635 	4892 	0.038515
42.27 	0.030776 	4874 	0.030655
42.31 	0.037281 	4855 	0.036557
42.35 	0.046300 	4838 	0.045695
42.39 	0.042048 	4804 	0.041682
42.43 	0.039649 	4792 	0.039160
42.47 	0.036726 	4765 	0.036480
42.51 	0.038162 	4743 	0.038038
42.55 	0.041419 	4708 	0.040299
42.59 	0.037217 	4729 	0.036598
42.63 	0.037163 	4709 	0.036292
42.67 	0.036507 	4684 	0.036257
42.71 	0.038816 	4663 	0.038188
42.75 	0.034655 	4617 	0.034147
42.79 	0.037756 	4582 	0.037245
42.83 	0.037037 	4536 	0.036391
42.87 	0.037564 	4499 	0.037434
42.91 	0.038600 	4456 	0.038074
42.95 	0.037364 	4416 	0.036701
42.99 	0.037628 	4385 	0.037228
43.03 	0.039234 	4333 	0.038828
43.07 	0.039804 	4296 	0.039123
43.11 	0.037368 	4255 	0.036817
43.15 	0.037565 	4206 	0.037148
43.19 	0.036719 	4194 	0.036160
43.23 	0.035147 	4154 	0.034865
43.27 	0.032400 	4105 	0.031948
43.31 	0.037509 	4079 	0.037509
43.35 	0.037698 	4032 	0.036972
43.39 	0.035482 	4002 	0.035043
43.43 	0.035859 	3960 	0.035267
43.47 	0.036980 	3921 	0.036532
43.51 	0.038690 	3877 	0.038388
43.55 	0.040486 	2964 	0.040091
43.59 	0.048110 	1746 	0.048110
43.63 	0.025974 	1001 	0.025389
43.67 	0.037849 	502 	0.036682
43.71 	0.025105 	239 	0.025105
43.75 	0.125000 	16 	0.125000