Folder: Bessy-II-KMC-II-insitu-sin2psi/Example_Data (part 70)

File: 25SC_s1_0028.002.dat
#F C:\frames\spec\25SC_s1_0028.002
#C title =s:28 frm:2 25SC_s1
#C wavelength =0.15406

#S 1  fr_average C:\frames\spec\25SC_s1_0028.002 C:\win32app\speccom\mask.axs chi 0 180 0 360 0.02
#C 2 theta =0.000000 to 180 deg
#C   q   =0.000000 to 81.568 nm^-1
#C  chi  =0.000000 to 360 deg
#C collumns:
#C  1 position (2theta or chi in degrees)
#C  2 average intensity (sum of all counts in the region divided with number of pixels)
#C  3 Number of pixels in region)
#C  4 error (sum of sqrt(intensity) for all pixels divided by number)
#N 4
#L TTh  Int  N_pix  Err
32.99 	0.049180 	61 	0.049180
33.03 	0.069734 	1391 	0.068471
33.07 	0.066341 	2050 	0.066341
33.11 	0.060489 	2579 	0.059088
33.15 	0.052684 	2999 	0.052294
33.19 	0.060144 	3342 	0.059443
33.23 	0.056202 	3523 	0.055038
33.27 	0.052066 	3630 	0.050614
33.31 	0.056284 	3660 	0.055644
33.35 	0.060097 	3694 	0.058829
33.39 	0.063556 	3729 	0.062928
33.43 	0.057166 	3761 	0.056050
33.47 	0.057925 	3798 	0.056537
33.51 	0.062910 	3815 	0.061042
33.55 	0.066094 	3843 	0.064722
33.59 	0.060052 	3880 	0.058995
33.63 	0.063792 	3919 	0.063169
33.67 	0.057916 	3954 	0.057175
33.71 	0.059371 	3975 	0.058782
33.75 	0.062266 	3999 	0.061387
33.79 	0.054195 	4041 	0.053470
33.83 	0.059753 	4050 	0.059319
33.87 	0.051569 	4111 	0.051141
33.91 	0.056399 	4149 	0.055976
33.95 	0.060033 	4181 	0.059193
33.99 	0.057143 	4200 	0.055865
34.03 	0.054194 	4244 	0.053504
34.07 	0.059044 	4268 	0.057534
34.11 	0.056485 	4302 	0.055374
34.15 	0.059109 	4331 	0.057891
34.19 	0.058001 	4362 	0.057061
34.23 	0.062600 	4393 	0.061266
34.27 	0.053596 	4422 	0.052117
34.31 	0.056528 	4458 	0.056002
34.35 	0.055308 	4484 	0.054785
34.39 	0.055531 	4502 	0.054620
34.43 	0.054858 	4539 	0.053825
34.47 	0.056402 	4592 	0.055382
34.51 	0.062961 	4606 	0.062325
34.55 	0.057721 	4643 	0.056838
34.59 	0.060963 	4675 	0.060211
34.63 	0.057325 	4710 	0.056330
34.67 	0.060325 	4741 	0.059213
34.71 	0.056232 	4766 	0.055125
34.75 	0.055532 	4808 	0.055045
34.79 	0.061567 	4824 	0.061203
34.83 	0.051419 	4862 	0.050455
34.87 	0.057518 	4868 	0.056416
34.91 	0.060221 	4882 	0.059501
34.95 	0.054192 	4890 	0.053833
34.99 	0.057790 	4897 	0.056714
35.03 	0.054825 	4943 	0.054232
35.07 	0.048988 	4940 	0.048632
35.11 	0.059430 	4947 	0.058601
35.15 	0.057525 	4937 	0.056200
35.19 	0.057062 	4942 	0.056114
35.23 	0.053792 	4945 	0.052370
35.27 	0.060226 	4948 	0.059161
35.31 	0.052706 	4933 	0.051875
35.35 	0.052610 	4942 	0.051899
35.39 	0.053589 	4945 	0.052997
35.43 	0.057369 	4933 	0.056300
35.47 	0.054756 	4931 	0.054043
35.51 	0.061104 	4926 	0.059915
35.55 	0.053792 	4945 	0.053318
35.59 	0.057027 	4945 	0.056553
35.63 	0.060692 	4943 	0.059862
35.67 	0.058478 	4942 	0.057649
35.71 	0.055904 	4937 	0.055192
35.75 	0.056175 	4931 	0.055938
35.79 	0.062652 	4932 	0.061821
35.83 	0.057218 	4946 	0.055777
35.87 	0.057282 	4923 	0.056925
35.91 	0.049929 	4927 	0.049453
35.95 	0.056539 	4917 	0.055585
35.99 	0.057097 	4939 	0.056741
36.03 	0.054623 	4943 	0.053556
36.07 	0.063778 	4939 	0.062236
36.11 	0.054169 	4929 	0.053437
36.15 	0.052642 	4939 	0.051812
36.19 	0.059109 	4940 	0.058279
36.23 	0.052077 	4935 	0.051365
36.27 	0.052386 	4925 	0.050958
36.31 	0.059050 	4928 	0.058575
36.35 	0.058633 	4929 	0.057206
36.39 	0.056289 	4921 	0.055079
36.43 	0.049107 	4928 	0.048513
36.47 	0.053485 	4936 	0.052535
36.51 	0.053517 	4933 	0.052567
36.55 	0.053379 	4927 	0.052547
36.59 	0.053250 	4939 	0.052182
36.63 	0.050902 	4931 	0.050308
36.67 	0.054361 	4930 	0.053648
36.71 	0.051006 	4921 	0.050292
36.75 	0.051173 	4944 	0.050344
36.79 	0.049177 	4921 	0.048324
36.83 	0.053713 	4915 	0.052283
36.87 	0.057039 	4944 	0.056446
36.91 	0.052823 	4941 	0.051993
36.95 	0.049868 	4933 	0.049274
36.99 	0.048835 	4935 	0.047529
37.03 	0.051381 	4924 	0.050429
37.07 	0.051469 	4935 	0.050638
37.11 	0.051064 	4935 	0.050114
37.15 	0.051131 	4909 	0.050295
37.19 	0.050761 	4925 	0.050405
37.23 	0.052867 	4918 	0.052629
37.27 	0.041479 	4894 	0.041120
37.31 	0.057143 	4935 	0.056193
37.35 	0.051033 	4938 	0.050202
37.39 	0.052930 	4931 	0.051980
37.43 	0.045215 	4932 	0.044621
37.47 	0.048894 	4929 	0.048419
37.51 	0.055544 	4933 	0.054931
37.55 	0.048682 	4930 	0.048563
37.59 	0.053510 	4915 	0.052914
37.63 	0.052856 	4919 	0.051904
37.67 	0.057708 	4904 	0.056394
37.71 	0.045040 	4929 	0.044564
37.75 	0.045344 	4940 	0.044988
37.79 	0.051116 	4930 	0.050284
37.83 	0.048780 	4920 	0.048185
37.87 	0.050415 	4939 	0.049585
37.91 	0.053347 	4930 	0.052258
37.95 	0.051209 	4921 	0.050019
37.99 	0.048453 	4912 	0.047479
38.03 	0.048075 	4909 	0.047478
38.07 	0.046445 	4909 	0.045849
38.11 	0.049443 	4935 	0.048137
38.15 	0.053884 	4918 	0.052931
38.19 	0.056389 	4930 	0.055439
38.23 	0.049210 	4938 	0.048143
38.27 	0.061866 	4930 	0.059490
38.31 	0.059062 	4927 	0.057616
38.35 	0.052963 	4928 	0.052012
38.39 	0.056223 	4909 	0.055269
38.43 	0.054719 	4916 	0.054123
38.47 	0.062564 	4907 	0.061708
38.51 	0.056772 	4932 	0.055347
38.55 	0.058955 	4936 	0.057768
38.59 	0.060926 	4924 	0.060093
38.63 	0.054833 	4924 	0.053406
38.67 	0.062994 	4937 	0.061570
38.71 	0.050772 	4924 	0.050177
38.75 	0.054597 	4927 	0.053884
38.79 	0.055938 	4934 	0.054989
38.83 	0.052653 	4919 	0.052177
38.87 	0.051721 	4911 	0.050866
38.91 	0.049969 	4903 	0.049372
38.95 	0.048597 	4918 	0.048001
38.99 	0.043751 	4937 	0.043277
39.03 	0.046413 	4934 	0.045225
39.07 	0.044882 	4924 	0.044763
39.11 	0.047049 	4931 	0.046337
39.15 	0.047609 	4915 	0.047252
39.19 	0.049624 	4917 	0.048671
39.23 	0.047310 	4925 	0.046596
39.27 	0.051731 	4910 	0.051373
39.31 	0.042588 	4884 	0.041988
39.35 	0.045998 	4935 	0.045523
39.39 	0.047677 	4929 	0.046964
39.43 	0.044598 	4933 	0.044123
39.47 	0.041032 	4923 	0.040437
39.51 	0.049756 	4924 	0.049518
39.55 	0.045131 	4919 	0.044298
39.59 	0.042956 	4912 	0.042121
39.63 	0.045104 	4922 	0.044628
39.67 	0.040098 	4913 	0.039621
39.71 	0.045352 	4895 	0.044993
39.75 	0.042005 	4928 	0.041054
39.79 	0.048721 	4926 	0.048008
39.83 	0.040130 	4934 	0.039417
39.87 	0.044264 	4925 	0.043669
39.91 	0.041040 	4922 	0.040802
39.95 	0.038861 	4915 	0.038622
39.99 	0.047040 	4932 	0.046090
40.03 	0.046266 	4928 	0.045672
40.07 	0.050173 	4923 	0.049082
40.11 	0.043531 	4916 	0.043293
40.15 	0.044576 	4913 	0.043503
40.19 	0.047068 	4929 	0.046950
40.23 	0.041565 	4932 	0.041447
40.27 	0.040510 	4937 	0.040036
40.31 	0.048188 	4939 	0.047220
40.35 	0.045334 	4919 	0.044620
40.39 	0.042182 	4931 	0.041469
40.43 	0.042869 	4922 	0.042393
40.47 	0.048394 	4918 	0.047679
40.51 	0.041853 	4922 	0.041496
40.55 	0.041972 	4908 	0.041256
40.59 	0.047802 	4937 	0.047090
40.63 	0.040162 	4930 	0.039549
40.67 	0.038524 	4932 	0.037693
40.71 	0.039538 	4932 	0.038944
40.75 	0.041371 	4931 	0.040658
40.79 	0.045898 	4924 	0.044946
40.83 	0.042005 	4928 	0.041529
40.87 	0.039773 	4928 	0.039416
40.91 	0.045094 	4923 	0.044737
40.95 	0.041930 	4913 	0.041214
40.99 	0.040617 	4924 	0.039765
41.03 	0.041182 	4905 	0.040705
41.07 	0.043611 	4930 	0.043016
41.11 	0.036474 	4935 	0.035881
41.15 	0.037847 	4941 	0.037491
41.19 	0.037728 	4930 	0.037015
41.23 	0.040696 	4939 	0.040222
41.27 	0.048469 	4931 	0.047756
41.31 	0.042570 	4933 	0.042333
41.35 	0.044350 	4938 	0.044113
41.39 	0.039935 	4933 	0.039341
41.43 	0.042199 	4929 	0.041467
41.47 	0.039789 	4926 	0.039194
41.51 	0.044332 	4940 	0.043976
41.55 	0.039716 	4935 	0.039598
41.59 	0.033043 	4933 	0.032805
41.63 	0.039490 	4938 	0.038897
41.67 	0.037652 	4940 	0.037533
41.71 	0.033644 	4934 	0.033525
41.75 	0.040170 	4929 	0.040052
41.79 	0.037824 	4944 	0.037113
41.83 	0.038961 	4928 	0.038486
41.87 	0.041337 	4935 	0.040981
41.91 	0.038290 	4936 	0.038053
41.95 	0.038329 	4931 	0.037973
41.99 	0.044241 	4905 	0.043524
42.03 	0.040292 	4939 	0.039699
42.07 	0.041118 	4937 	0.040643
42.11 	0.044894 	4945 	0.043946
42.15 	0.036249 	4938 	0.035775
42.19 	0.042991 	4908 	0.042514
42.23 	0.040270 	4892 	0.039911
42.27 	0.043496 	4874 	0.042655
42.31 	0.037281 	4855 	0.037040
42.35 	0.035759 	4838 	0.035395
42.39 	0.037469 	4804 	0.037103
42.43 	0.033598 	4792 	0.033353
42.47 	0.037985 	4765 	0.037494
42.51 	0.044487 	4743 	0.043622
42.55 	0.040357 	4708 	0.040357
42.59 	0.038274 	4729 	0.037531
42.63 	0.037588 	4709 	0.037339
42.67 	0.049103 	4684 	0.048728
42.71 	0.038173 	4663 	0.037922
42.75 	0.032705 	4617 	0.032705
42.79 	0.038848 	4582 	0.038464
42.83 	0.032407 	4536 	0.032407
42.87 	0.038231 	4499 	0.037970
42.91 	0.038824 	4456 	0.038167
42.95 	0.039855 	4416 	0.039457
42.99 	0.039453 	4385 	0.039186
43.03 	0.033464 	4333 	0.033329
43.07 	0.041899 	4296 	0.041763
43.11 	0.039013 	4255 	0.038875
43.15 	0.038516 	4206 	0.038099
43.19 	0.043395 	4194 	0.043116
43.23 	0.038036 	4154 	0.037754
43.27 	0.038733 	4105 	0.038305
43.31 	0.037019 	4079 	0.036732
43.35 	0.039435 	4032 	0.038708
43.39 	0.036482 	4002 	0.036335
43.43 	0.039394 	3960 	0.038802
43.47 	0.036980 	3921 	0.036682
43.51 	0.042301 	3877 	0.041394
43.55 	0.036775 	2964 	0.036379
43.59 	0.030928 	1746 	0.030592
43.63 	0.037962 	1001 	0.037962
43.67 	0.039841 	502 	0.039841
43.71 	0.033473 	239 	0.033473
43.75 	0.062500 	16 	0.062500

File: 25SC_s1_0028.003.dat
#F C:\frames\spec\25SC_s1_0028.003
#C title =s:28 frm:3 25SC_s1
#C wavelength =0.15406

#S 1  fr_average C:\frames\spec\25SC_s1_0028.003 C:\win32app\speccom\mask.axs chi 0 180 0 360 0.02
#C 2 theta =0.000000 to 180 deg
#C   q   =0.000000 to 81.568 nm^-1
#C  chi  =0.000000 to 360 deg
#C collumns:
#C  1 position (2theta or chi in degrees)
#C  2 average intensity (sum of all counts in the region divided with number of pixels)
#C  3 Number of pixels in region)
#C  4 error (sum of sqrt(intensity) for all pixels divided by number)
#N 4
#L TTh  Int  N_pix  Err
32.99 	0.049180 	61 	0.049180
33.03 	0.066139 	1391 	0.065297
33.07 	0.061463 	2050 	0.060035
33.11 	0.059325 	2579 	0.058417
33.15 	0.052684 	2999 	0.051708
33.19 	0.056254 	3342 	0.055202
33.23 	0.060744 	3523 	0.059912
33.27 	0.063636 	3630 	0.061861
33.31 	0.053825 	3660 	0.053505
33.35 	0.058202 	3694 	0.057568
33.39 	0.063288 	3729 	0.062345
33.43 	0.053709 	3761 	0.052930
33.47 	0.056082 	3798 	0.054694
33.51 	0.055046 	3815 	0.053664
33.55 	0.063232 	3843 	0.062012
33.59 	0.062113 	3880 	0.060755
33.63 	0.053075 	3919 	0.052028
33.67 	0.057916 	3954 	0.056435
33.71 	0.063899 	3975 	0.062549
33.75 	0.062266 	3999 	0.061240
33.79 	0.061866 	4041 	0.060416
33.83 	0.061481 	4050 	0.059746
33.87 	0.057893 	4111 	0.057039
33.91 	0.063389 	4149 	0.061977
33.95 	0.065535 	4181 	0.064133
33.99 	0.062143 	4200 	0.061144
34.03 	0.057257 	4244 	0.056291
34.07 	0.058341 	4268 	0.057380
34.11 	0.063226 	4302 	0.062409
34.15 	0.071115 	4331 	0.070168
34.19 	0.058689 	4362 	0.057614
34.23 	0.056681 	4393 	0.056014
34.27 	0.055179 	4422 	0.054384
34.31 	0.057201 	4458 	0.056149
34.35 	0.051517 	4484 	0.050341
34.39 	0.048423 	4502 	0.047361
34.43 	0.057502 	4539 	0.056469
34.47 	0.062064 	4592 	0.060513
34.51 	0.059705 	4606 	0.059196
34.55 	0.053198 	4643 	0.052189
34.59 	0.050053 	4675 	0.049427
34.63 	0.059448 	4710 	0.058453
34.67 	0.059270 	4741 	0.058282
34.71 	0.064834 	4766 	0.063728
34.75 	0.059900 	4808 	0.058925
34.79 	0.054934 	4824 	0.054691
34.83 	0.060880 	4862 	0.059415
34.87 	0.058751 	4868 	0.058149
34.91 	0.060426 	4882 	0.059086
34.95 	0.052965 	4890 	0.052246
34.99 	0.052481 	4897 	0.052242
35.03 	0.060085 	4943 	0.059255
35.07 	0.058502 	4940 	0.057909
35.11 	0.060239 	4947 	0.059646
35.15 	0.061373 	4937 	0.060424
35.19 	0.063132 	4942 	0.061828
35.23 	0.057634 	4945 	0.056785
35.27 	0.061035 	4948 	0.059614
35.31 	0.051693 	4933 	0.051218
35.35 	0.055645 	4942 	0.055171
35.39 	0.062285 	4945 	0.061456
35.43 	0.056963 	4933 	0.055756
35.47 	0.057189 	4931 	0.056833
35.51 	0.061104 	4926 	0.060034
35.55 	0.060061 	4945 	0.058995
35.59 	0.058645 	4945 	0.057816
35.63 	0.052195 	4943 	0.051721
35.67 	0.060097 	4942 	0.059267
35.71 	0.055094 	4937 	0.054145
35.75 	0.058609 	4931 	0.057777
35.79 	0.048865 	4932 	0.048152
35.83 	0.055803 	4946 	0.055210
35.87 	0.059923 	4923 	0.058852
35.91 	0.051350 	4927 	0.050399
35.95 	0.057352 	4917 	0.056280
35.99 	0.052035 	4939 	0.051205
36.03 	0.059276 	4943 	0.058565
36.07 	0.062361 	4939 	0.061175
36.11 	0.051532 	4929 	0.050700
36.15 	0.058919 	4939 	0.057239
36.19 	0.059312 	4940 	0.058719
36.23 	0.050861 	4935 	0.050030
36.27 	0.051168 	4925 	0.050454
36.31 	0.055195 	4928 	0.054482
36.35 	0.058835 	4929 	0.057627
36.39 	0.051006 	4921 	0.050153
36.43 	0.051948 	4928 	0.051473
36.47 	0.055713 	4936 	0.054764
36.51 	0.060004 	4933 	0.059153
36.55 	0.050335 	4927 	0.049364
36.59 	0.050820 	4939 	0.050108
36.63 	0.055161 	4931 	0.054686
36.67 	0.055172 	4930 	0.054816
36.71 	0.058118 	4921 	0.056928
36.75 	0.057241 	4944 	0.056412
36.79 	0.054460 	4921 	0.053508
36.83 	0.050458 	4915 	0.050100
36.87 	0.060477 	4944 	0.058799
36.91 	0.055657 	4941 	0.054945
36.95 	0.047841 	4933 	0.047129
36.99 	0.055522 	4935 	0.054572
37.03 	0.050162 	4924 	0.049806
37.07 	0.050861 	4935 	0.050248
37.11 	0.049848 	4935 	0.049492
37.15 	0.056223 	4909 	0.055349
37.19 	0.051777 	4925 	0.051063
37.23 	0.054697 	4918 	0.053982
37.27 	0.050674 	4894 	0.050196
37.31 	0.057143 	4935 	0.056549
37.35 	0.052045 	4938 	0.051215
37.39 	0.049483 	4931 	0.049008
37.43 	0.051298 	4932 	0.050941
37.47 	0.053358 	4929 	0.052407
37.51 	0.054936 	4933 	0.053986
37.55 	0.053144 	4930 	0.052431
37.59 	0.051272 	4915 	0.049961
37.63 	0.047571 	4919 	0.046737
37.67 	0.052814 	4904 	0.051739
37.71 	0.060459 	4929 	0.059270
37.75 	0.049595 	4940 	0.049002
37.79 	0.047667 	4930 	0.046578
37.83 	0.047358 	4920 	0.047120
37.87 	0.053857 	4939 	0.052790
37.91 	0.053955 	4930 	0.052510
37.95 	0.048567 	4921 	0.048091
37.99 	0.048046 	4912 	0.047330
38.03 	0.055205 	4909 	0.054727
38.07 	0.052149 	4909 	0.050359
38.11 	0.056332 	4935 	0.055145
38.15 	0.055714 	4918 	0.054860
38.19 	0.055172 	4930 	0.054341
38.23 	0.051640 	4938 	0.050573
38.27 	0.054158 	4930 	0.053445
38.31 	0.061498 	4927 	0.060428
38.35 	0.056615 	4928 	0.055545
38.39 	0.060705 	4909 	0.059273
38.43 	0.056347 	4916 	0.055751
38.47 	0.055431 	4907 	0.054954
38.51 	0.056569 	4932 	0.056094
38.55 	0.054295 	4936 	0.053583
38.59 	0.053615 	4924 	0.052901
38.63 	0.055849 	4924 	0.054897
38.67 	0.051853 	4937 	0.050885
38.71 	0.057271 	4924 	0.056319
38.75 	0.045667 	4927 	0.044597
38.79 	0.055533 	4934 	0.054702
38.83 	0.053060 	4919 	0.052583
38.87 	0.050092 	4911 	0.049257
38.91 	0.050377 	4903 	0.049422
38.95 	0.049817 	4918 	0.048745
38.99 	0.045574 	4937 	0.044862
39.03 	0.046007 	4934 	0.045651
39.07 	0.045085 	4924 	0.044728
39.11 	0.046846 	4931 	0.046371
39.15 	0.047609 	4915 	0.047371
39.19 	0.052268 	4917 	0.051553
39.23 	0.046904 	4925 	0.046309
39.27 	0.048473 	4910 	0.048234
39.31 	0.047912 	4884 	0.047312
39.35 	0.050861 	4935 	0.050386
39.39 	0.048083 	4929 	0.047370
39.43 	0.043381 	4933 	0.042531
39.47 	0.049563 	4923 	0.048968
39.51 	0.047522 	4924 	0.046313
39.55 	0.048384 	4919 	0.047550
39.59 	0.052524 	4912 	0.051809
39.63 	0.052418 	4922 	0.051942
39.67 	0.049257 	4913 	0.048780
39.71 	0.048212 	4895 	0.047255
39.75 	0.049310 	4928 	0.048240
39.79 	0.046894 	4926 	0.046537
39.83 	0.047629 	4934 	0.046323
39.87 	0.046294 	4925 	0.045700
39.91 	0.048354 	4922 	0.047402
39.95 	0.048423 	4915 	0.047927
39.99 	0.041160 	4932 	0.040447
40.03 	0.045860 	4928 	0.045266
40.07 	0.046110 	4923 	0.045515
40.11 	0.048413 	4916 	0.047798
40.15 	0.048036 	4913 	0.047201
40.19 	0.046460 	4929 	0.045509
40.23 	0.047851 	4932 	0.046663
40.27 	0.044156 	4937 	0.043682
40.31 	0.042519 	4939 	0.041926
40.35 	0.043708 	4919 	0.043232
40.39 	0.040763 	4931 	0.040030
40.43 	0.042259 	4922 	0.041664
40.47 	0.043107 	4918 	0.042631
40.51 	0.041853 	4922 	0.041377
40.55 	0.043806 	4908 	0.043209
40.59 	0.045979 	4937 	0.045742
40.63 	0.041582 	4930 	0.041107
40.67 	0.047851 	4932 	0.047119
40.71 	0.044809 	4932 	0.044572
40.75 	0.041371 	4931 	0.040896
40.79 	0.048538 	4924 	0.047586
40.83 	0.047078 	4928 	0.046246
40.87 	0.048701 	4928 	0.047869
40.91 	0.039001 	4923 	0.038287
40.95 	0.043151 	4913 	0.042793
40.99 	0.047929 	4924 	0.046977
41.03 	0.047706 	4905 	0.046990
41.07 	0.046450 	4930 	0.046094
41.11 	0.045390 	4935 	0.045034
41.15 	0.039668 	4941 	0.039550
41.19 	0.039959 	4930 	0.039722
41.23 	0.044948 	4939 	0.044593
41.27 	0.041168 	4931 	0.040693
41.31 	0.043584 	4933 	0.043228
41.35 	0.043742 	4938 	0.042912
41.39 	0.043989 	4933 	0.043376
41.43 	0.046460 	4929 	0.045489
41.47 	0.043849 	4926 	0.043492
41.51 	0.051417 	4940 	0.051180
41.55 	0.041945 	4935 	0.041470
41.59 	0.041151 	4933 	0.040914
41.63 	0.046578 	4938 	0.045866
41.67 	0.047368 	4940 	0.046657
41.71 	0.043170 	4934 	0.042319
41.75 	0.037127 	4929 	0.036890
41.79 	0.040655 	4944 	0.040418
41.83 	0.046063 	4928 	0.045469
41.87 	0.041337 	4935 	0.041219
41.91 	0.045989 	4936 	0.045158
41.95 	0.035693 	4931 	0.035217
41.99 	0.040367 	4905 	0.039392
42.03 	0.035230 	4939 	0.034637
42.07 	0.040713 	4937 	0.040476
42.11 	0.042265 	4945 	0.041791
42.15 	0.038477 	4938 	0.038240
42.19 	0.043602 	4908 	0.043364
42.23 	0.041701 	4892 	0.041342
42.27 	0.040419 	4874 	0.040058
42.31 	0.045520 	4855 	0.045158
42.35 	0.040306 	4838 	0.039822
42.39 	0.034763 	4804 	0.034641
42.43 	0.034015 	4792 	0.033893
42.47 	0.042812 	4765 	0.041706
42.51 	0.042378 	4743 	0.042131
42.55 	0.042693 	4708 	0.042071
42.59 	0.042715 	4729 	0.041848
42.63 	0.039924 	4709 	0.039426
42.67 	0.041845 	4684 	0.040969
42.71 	0.040532 	4663 	0.040029
42.75 	0.039853 	4617 	0.039599
42.79 	0.042994 	4582 	0.042355
42.83 	0.037919 	4536 	0.037402
42.87 	0.049344 	4499 	0.048411
42.91 	0.041741 	4456 	0.041479
42.95 	0.045969 	4416 	0.045173
42.99 	0.036716 	4385 	0.036315
43.03 	0.043388 	4333 	0.042442
43.07 	0.042365 	4296 	0.041252
43.11 	0.042773 	4255 	0.042223
43.15 	0.042083 	4206 	0.041665
43.19 	0.041726 	4194 	0.041447
43.23 	0.040684 	4154 	0.040261
43.27 	0.042631 	4105 	0.042488
43.31 	0.038000 	4079 	0.037569
43.35 	0.036954 	4032 	0.036954
43.39 	0.031234 	4002 	0.031234
43.43 	0.038636 	3960 	0.038341
43.47 	0.040806 	3921 	0.040208
43.51 	0.041785 	3877 	0.040878
43.55 	0.039474 	2964 	0.039276
43.59 	0.042383 	1746 	0.042047
43.63 	0.038961 	1001 	0.038961
43.67 	0.031873 	502 	0.031873
43.71 	0.062762 	239 	0.062762
43.75 	0.187500 	16 	0.187500