Folder: Bessy-II-KMC-II-insitu-sin2psi/Example_Data (part 48)

File: 25SC_s1_0019.003.dat
#F C:\frames\spec\25SC_s1_0019.003
#C title =s:19 frm:3 25SC_s1
#C wavelength =0.15406

#S 1  fr_average C:\frames\spec\25SC_s1_0019.003 C:\win32app\speccom\mask.axs chi 0 180 0 360 0.02
#C 2 theta =0.000000 to 180 deg
#C   q   =0.000000 to 81.568 nm^-1
#C  chi  =0.000000 to 360 deg
#C collumns:
#C  1 position (2theta or chi in degrees)
#C  2 average intensity (sum of all counts in the region divided with number of pixels)
#C  3 Number of pixels in region)
#C  4 error (sum of sqrt(intensity) for all pixels divided by number)
#N 4
#L TTh  Int  N_pix  Err
32.99 	0.049180 	61 	0.049180
33.03 	0.061826 	1391 	0.059720
33.07 	0.055610 	2050 	0.054181
33.11 	0.061652 	2579 	0.060743
33.15 	0.067689 	2999 	0.065736
33.19 	0.061939 	3342 	0.061238
33.23 	0.060176 	3523 	0.059317
33.27 	0.062259 	3630 	0.061291
33.31 	0.053005 	3660 	0.052205
33.35 	0.063075 	3694 	0.062441
33.39 	0.061142 	3729 	0.060043
33.43 	0.063547 	3761 	0.062301
33.47 	0.062138 	3798 	0.061058
33.51 	0.067104 	3815 	0.065568
33.55 	0.053864 	3843 	0.053254
33.59 	0.061856 	3880 	0.060623
33.63 	0.057157 	3919 	0.056087
33.67 	0.060445 	3954 	0.059087
33.71 	0.057610 	3975 	0.056578
33.75 	0.060265 	3999 	0.059240
33.79 	0.056669 	4041 	0.055944
33.83 	0.058519 	4050 	0.057940
33.87 	0.057650 	4111 	0.057223
33.91 	0.059532 	4149 	0.058685
33.95 	0.058120 	4181 	0.057279
33.99 	0.058810 	4200 	0.057950
34.03 	0.057493 	4244 	0.056251
34.07 	0.050609 	4268 	0.049923
34.11 	0.060437 	4302 	0.060165
34.15 	0.064419 	4331 	0.063473
34.19 	0.062127 	4362 	0.060785
34.23 	0.064648 	4393 	0.063182
34.27 	0.052013 	4422 	0.051085
34.31 	0.060565 	4458 	0.059514
34.35 	0.057761 	4484 	0.056716
34.39 	0.059973 	4502 	0.058802
34.43 	0.055959 	4539 	0.054540
34.47 	0.051394 	4592 	0.050501
34.51 	0.069909 	4606 	0.068637
34.55 	0.059875 	4643 	0.058992
34.59 	0.059037 	4675 	0.058411
34.63 	0.058386 	4710 	0.057143
34.67 	0.058637 	4741 	0.057649
34.71 	0.060218 	4766 	0.059235
34.75 	0.064060 	4808 	0.062598
34.79 	0.055556 	4824 	0.054948
34.83 	0.060263 	4862 	0.059661
34.87 	0.057313 	4868 	0.056711
34.91 	0.058173 	4882 	0.057453
34.95 	0.059305 	4890 	0.058107
34.99 	0.062487 	4897 	0.061291
35.03 	0.062917 	4943 	0.061476
35.07 	0.056883 	4940 	0.056053
35.11 	0.055589 	4947 	0.054504
35.15 	0.059550 	4937 	0.058838
35.19 	0.057062 	4942 	0.056232
35.23 	0.063498 	4945 	0.062669
35.27 	0.052951 	4948 	0.052122
35.31 	0.067707 	4933 	0.065788
35.35 	0.060704 	4942 	0.060112
35.39 	0.055814 	4945 	0.055340
35.43 	0.063248 	4933 	0.061941
35.47 	0.063070 	4931 	0.061506
35.51 	0.059683 	4926 	0.058613
35.55 	0.056218 	4945 	0.055626
35.59 	0.062285 	4945 	0.061456
35.63 	0.056848 	4943 	0.055900
35.67 	0.063335 	4942 	0.062386
35.71 	0.060563 	4937 	0.059851
35.75 	0.061245 	4931 	0.060414
35.79 	0.056569 	4932 	0.055975
35.83 	0.061666 	4946 	0.060719
35.87 	0.058298 	4923 	0.057227
35.91 	0.057439 	4927 	0.056844
35.95 	0.055725 	4917 	0.055129
35.99 	0.048593 	4939 	0.048118
36.03 	0.056241 	4943 	0.055767
36.07 	0.058109 	4939 	0.057635
36.11 	0.062082 	4929 	0.060992
36.15 	0.061551 	4939 	0.060365
36.19 	0.056883 	4940 	0.055815
36.23 	0.059574 	4935 	0.058862
36.27 	0.052386 	4925 	0.051534
36.31 	0.058036 	4928 	0.056689
36.35 	0.055184 	4929 	0.053757
36.39 	0.059541 	4921 	0.058827
36.43 	0.055601 	4928 	0.054650
36.47 	0.060575 	4936 	0.059270
36.51 	0.058382 	4933 	0.057551
36.55 	0.059265 	4927 	0.058314
36.59 	0.058109 	4939 	0.057635
36.63 	0.060637 	4931 	0.059805
36.67 	0.055984 	4930 	0.055033
36.71 	0.056086 	4921 	0.054995
36.75 	0.058252 	4944 	0.057186
36.79 	0.054054 	4921 	0.053459
36.83 	0.053713 	4915 	0.052402
36.87 	0.055623 	4944 	0.054201
36.91 	0.055050 	4941 	0.053963
36.95 	0.056355 	4933 	0.055880
36.99 	0.057953 	4935 	0.057004
37.03 	0.053818 	4924 	0.052866
37.07 	0.053293 	4935 	0.052343
37.11 	0.052077 	4935 	0.051127
37.15 	0.057242 	4909 	0.055671
37.19 	0.055838 	4925 	0.054985
37.23 	0.053070 	4918 	0.052475
37.27 	0.059256 	4894 	0.058538
37.31 	0.061398 	4935 	0.060092
37.35 	0.062171 	4938 	0.060214
37.39 	0.059623 	4931 	0.058672
37.43 	0.050284 	4932 	0.049690
37.47 	0.051735 	4929 	0.050903
37.51 	0.050882 	4933 	0.050150
37.55 	0.054158 	4930 	0.052832
37.59 	0.051679 	4915 	0.050348
37.63 	0.051840 	4919 	0.051006
37.67 	0.052202 	4904 	0.051366
37.71 	0.051126 	4929 	0.050294
37.75 	0.055061 	4940 	0.054231
37.79 	0.051927 	4930 	0.050739
37.83 	0.048984 	4920 	0.048507
37.87 	0.046366 	4939 	0.045635
37.91 	0.053550 	4930 	0.052599
37.95 	0.055477 	4921 	0.054762
37.99 	0.053135 	4912 	0.052658
38.03 	0.053168 	4909 	0.052213
38.07 	0.053168 	4909 	0.052571
38.11 	0.053698 	4935 	0.052630
38.15 	0.049817 	4918 	0.048983
38.19 	0.059635 	4930 	0.058566
38.23 	0.053463 	4938 	0.052988
38.27 	0.054970 	4930 	0.053306
38.31 	0.063528 	4927 	0.062457
38.35 	0.058036 	4928 	0.056590
38.39 	0.060501 	4909 	0.059069
38.43 	0.056957 	4916 	0.055765
38.47 	0.061545 	4907 	0.060948
38.51 	0.063666 	4932 	0.063072
38.55 	0.057131 	4936 	0.056301
38.59 	0.062551 	4924 	0.061480
38.63 	0.062145 	4924 	0.060836
38.67 	0.055904 	4937 	0.054342
38.71 	0.054427 	4924 	0.053476
38.75 	0.059874 	4927 	0.059161
38.79 	0.051885 	4934 	0.051054
38.83 	0.050620 	4919 	0.049667
38.87 	0.047241 	4911 	0.046764
38.91 	0.050581 	4903 	0.049864
38.95 	0.046360 	4918 	0.045765
38.99 	0.054689 	4937 	0.053740
39.03 	0.053101 	4934 	0.051676
39.07 	0.046507 	4924 	0.046031
39.11 	0.042182 	4931 	0.041707
39.15 	0.046389 	4915 	0.046150
39.19 	0.047183 	4917 	0.045634
39.23 	0.046497 	4925 	0.045903
39.27 	0.047658 	4910 	0.046703
39.31 	0.052416 	4884 	0.051317
39.35 	0.044580 	4935 	0.043749
39.39 	0.049300 	4929 	0.048825
39.43 	0.046017 	4933 	0.045185
39.47 	0.049563 	4923 	0.048849
39.51 	0.053412 	4924 	0.052817
39.55 	0.047367 	4919 	0.046653
39.59 	0.053135 	4912 	0.052758
39.63 	0.050996 	4922 	0.049924
39.67 	0.046407 	4913 	0.045811
39.71 	0.048621 	4895 	0.048023
39.75 	0.052963 	4928 	0.052012
39.79 	0.051563 	4926 	0.050850
39.83 	0.053506 	4934 	0.052675
39.87 	0.050761 	4925 	0.049691
39.91 	0.047745 	4922 	0.047031
39.95 	0.049034 	4915 	0.048438
39.99 	0.052717 	4932 	0.052004
40.03 	0.045252 	4928 	0.044776
40.07 	0.046923 	4923 	0.045971
40.11 	0.042107 	4916 	0.041273
40.15 	0.049461 	4913 	0.048984
40.19 	0.049706 	4929 	0.049230
40.23 	0.044607 	4932 	0.043894
40.27 	0.048005 	4937 	0.047174
40.31 	0.048998 	4939 	0.048049
40.35 	0.048790 	4919 	0.048076
40.39 	0.046846 	4931 	0.045758
40.43 	0.041447 	4922 	0.040971
40.47 	0.044530 	4918 	0.043816
40.51 	0.038196 	4922 	0.037720
40.55 	0.047677 	4908 	0.047080
40.59 	0.050233 	4937 	0.049521
40.63 	0.042799 	4930 	0.042324
40.67 	0.045215 	4932 	0.044265
40.71 	0.048459 	4932 	0.047746
40.75 	0.049686 	4931 	0.048973
40.79 	0.049350 	4924 	0.048874
40.83 	0.046469 	4928 	0.046350
40.87 	0.039773 	4928 	0.038584
40.91 	0.047329 	4923 	0.046615
40.95 	0.043761 	4913 	0.043404
40.99 	0.046304 	4924 	0.045947
41.03 	0.043425 	4905 	0.042828
41.07 	0.042596 	4930 	0.041983
41.11 	0.042553 	4935 	0.041960
41.15 	0.047359 	4941 	0.046410
41.19 	0.046045 	4930 	0.045688
41.23 	0.045556 	4939 	0.044844
41.27 	0.046441 	4931 	0.045609
41.31 	0.043381 	4933 	0.042768
41.35 	0.042527 	4938 	0.041816
41.39 	0.042368 	4933 	0.041893
41.43 	0.048489 	4929 	0.048132
41.47 	0.042428 	4926 	0.041952
41.51 	0.050202 	4940 	0.049491
41.55 	0.044580 	4935 	0.043986
41.59 	0.049260 	4933 	0.048310
41.63 	0.045970 	4938 	0.045496
41.67 	0.044534 	4940 	0.044060
41.71 	0.046210 	4934 	0.045854
41.75 	0.043619 	4929 	0.042906
41.79 	0.041262 	4944 	0.040551
41.83 	0.043831 	4928 	0.043475
41.87 	0.041945 	4935 	0.041708
41.91 	0.038088 	4936 	0.037969
41.95 	0.046035 	4931 	0.045323
41.99 	0.042406 	4905 	0.042047
42.03 	0.046771 	4939 	0.046296
42.07 	0.041726 	4937 	0.041488
42.11 	0.045298 	4945 	0.044588
42.15 	0.041312 	4938 	0.040956
42.19 	0.037897 	4908 	0.037181
42.23 	0.042723 	4892 	0.042244
42.27 	0.041650 	4874 	0.041529
42.31 	0.046550 	4855 	0.046168
42.35 	0.042993 	4838 	0.042630
42.39 	0.038926 	4804 	0.038438
42.43 	0.038606 	4792 	0.038117
42.47 	0.040923 	4765 	0.040309
42.51 	0.045752 	4743 	0.045381
42.55 	0.053526 	4708 	0.052406
42.59 	0.043138 	4729 	0.043014
42.63 	0.040561 	4709 	0.040063
42.67 	0.038429 	4684 	0.037428
42.71 	0.034956 	4663 	0.034830
42.75 	0.039853 	4617 	0.039218
42.79 	0.038848 	4582 	0.038592
42.83 	0.033069 	4536 	0.032940
42.87 	0.042676 	4499 	0.042286
42.91 	0.041517 	4456 	0.041386
42.95 	0.038723 	4416 	0.037927
42.99 	0.042873 	4385 	0.042339
43.03 	0.042003 	4333 	0.041733
43.07 	0.046089 	4296 	0.045544
43.11 	0.037133 	4255 	0.036720
43.15 	0.035426 	4206 	0.035286
43.19 	0.042203 	4194 	0.041365
43.23 	0.038999 	4154 	0.038717
43.27 	0.048234 	4105 	0.047520
43.31 	0.043393 	4079 	0.042531
43.35 	0.042659 	4032 	0.042223
43.39 	0.044728 	4002 	0.044289
43.43 	0.036869 	3960 	0.036277
43.47 	0.035195 	3921 	0.034896
43.51 	0.036626 	3877 	0.036324
43.55 	0.043860 	2964 	0.043069
43.59 	0.033792 	1746 	0.033456
43.63 	0.045954 	1001 	0.043613
43.67 	0.029880 	502 	0.028714
43.71 	0.037657 	239 	0.037657
43.75 	0.062500 	16 	0.062500

File: 25SC_s1_0019.004.dat
#F C:\frames\spec\25SC_s1_0019.004
#C title =s:19 frm:4 25SC_s1
#C wavelength =0.15406

#S 1  fr_average C:\frames\spec\25SC_s1_0019.004 C:\win32app\speccom\mask.axs chi 0 180 0 360 0.02
#C 2 theta =0.000000 to 180 deg
#C   q   =0.000000 to 81.568 nm^-1
#C  chi  =0.000000 to 360 deg
#C collumns:
#C  1 position (2theta or chi in degrees)
#C  2 average intensity (sum of all counts in the region divided with number of pixels)
#C  3 Number of pixels in region)
#C  4 error (sum of sqrt(intensity) for all pixels divided by number)
#N 4
#L TTh  Int  N_pix  Err
32.99 	0.065574 	61 	0.055971
33.03 	0.054637 	1391 	0.054637
33.07 	0.060976 	2050 	0.060118
33.11 	0.057387 	2579 	0.056478
33.15 	0.057352 	2999 	0.056766
33.19 	0.058348 	3342 	0.056771
33.23 	0.053647 	3523 	0.052816
33.27 	0.058678 	3630 	0.057548
33.31 	0.065027 	3660 	0.064201
33.35 	0.061722 	3694 	0.060453
33.39 	0.052293 	3729 	0.050879
33.43 	0.064876 	3761 	0.064072
33.47 	0.059242 	3798 	0.058933
33.51 	0.056094 	3815 	0.055173
33.55 	0.064273 	3843 	0.063053
33.59 	0.057732 	3880 	0.056675
33.63 	0.057413 	3919 	0.056217
33.67 	0.063480 	3954 	0.062887
33.71 	0.057862 	3975 	0.056953
33.75 	0.056264 	3999 	0.055508
33.79 	0.056917 	4041 	0.056192
33.83 	0.059012 	4050 	0.058289
33.87 	0.053028 	4111 	0.052031
33.91 	0.060497 	4149 	0.059508
33.95 	0.066730 	4181 	0.065189
33.99 	0.060000 	4200 	0.058745
34.03 	0.064090 	4244 	0.062572
34.07 	0.065370 	4268 	0.064821
34.11 	0.061134 	4302 	0.060590
34.15 	0.066497 	4331 	0.065415
34.19 	0.063274 	4362 	0.061909
34.23 	0.063282 	4393 	0.062082
34.27 	0.063546 	4422 	0.062354
34.31 	0.061911 	4458 	0.061123
34.35 	0.058207 	4484 	0.057554
34.39 	0.058418 	4502 	0.057768
34.43 	0.053095 	4539 	0.052450
34.47 	0.061193 	4592 	0.060300
34.51 	0.065784 	4606 	0.064894
34.55 	0.060952 	4643 	0.059438
34.59 	0.062888 	4675 	0.062261
34.63 	0.067091 	4710 	0.066345
34.67 	0.059692 	4741 	0.058704
34.71 	0.057491 	4766 	0.056139
34.75 	0.058028 	4808 	0.057663
34.79 	0.057214 	4824 	0.055757
34.83 	0.061909 	4862 	0.060945
34.87 	0.056491 	4868 	0.055769
34.91 	0.069848 	4882 	0.068769
34.95 	0.058282 	4890 	0.057424
34.99 	0.060854 	4897 	0.059877
35.03 	0.060287 	4943 	0.059102
35.07 	0.060324 	4940 	0.059375
35.11 	0.068931 	4947 	0.067628
35.15 	0.062791 	4937 	0.061367
35.19 	0.061311 	4942 	0.060126
35.23 	0.061678 	4945 	0.060731
35.27 	0.061641 	4948 	0.060457
35.31 	0.061829 	4933 	0.060879
35.35 	0.059085 	4942 	0.057663
35.39 	0.058038 	4945 	0.056972
35.43 	0.061220 	4933 	0.060726
35.47 	0.062665 	4931 	0.061714
35.51 	0.063134 	4926 	0.061212
35.55 	0.059050 	4945 	0.058694
35.59 	0.058241 	4945 	0.057648
35.63 	0.058669 	4943 	0.057721
35.67 	0.056860 	4942 	0.055793
35.71 	0.056917 	4937 	0.055968
35.75 	0.062462 	4931 	0.061393
35.79 	0.063058 	4932 	0.061989
35.83 	0.063081 	4946 	0.061778
35.87 	0.059313 	4923 	0.058481
35.91 	0.060889 	4927 	0.059938
35.95 	0.062030 	4917 	0.060223
35.99 	0.058514 	4939 	0.057802
36.03 	0.062108 	4943 	0.060804
36.07 	0.056287 	4939 	0.054439
36.11 	0.062284 	4929 	0.061571
36.15 	0.057502 	4939 	0.056908
36.19 	0.056478 	4940 	0.055173
36.23 	0.066261 	4935 	0.064718
36.27 	0.061929 	4925 	0.060858
36.31 	0.056818 	4928 	0.056105
36.35 	0.064516 	4929 	0.063209
36.39 	0.057509 	4921 	0.056556
36.43 	0.058644 	4928 	0.057218
36.47 	0.056321 	4936 	0.055609
36.51 	0.055342 	4933 	0.054629
36.55 	0.055003 	4927 	0.053913
36.59 	0.059729 	4939 	0.058661
36.63 	0.059014 	4931 	0.058183
36.67 	0.059635 	4930 	0.058546
36.71 	0.057712 	4921 	0.057236
36.75 	0.053398 	4944 	0.052450
36.79 	0.058321 	4921 	0.057488
36.83 	0.054730 	4915 	0.053300
36.87 	0.056028 	4944 	0.055198
36.91 	0.055454 	4941 	0.054743
36.95 	0.053517 	4933 	0.052923
36.99 	0.059169 	4935 	0.057982
37.03 	0.056052 	4924 	0.055457
37.07 	0.060588 	4935 	0.059757
37.11 	0.051064 	4935 	0.050095
37.15 	0.058464 	4909 	0.057012
37.19 	0.059289 	4925 	0.057862
37.23 	0.058967 	4918 	0.058372
37.27 	0.052922 	4894 	0.052204
37.31 	0.050659 	4935 	0.050065
37.35 	0.057716 	4938 	0.056767
37.39 	0.055161 	4931 	0.054211
37.43 	0.055353 	4932 	0.054521
37.47 	0.057010 	4929 	0.055940
37.51 	0.049666 	4933 	0.049072
37.55 	0.055578 	4930 	0.054489
37.59 	0.054527 	4915 	0.053693
37.63 	0.059972 	4919 	0.059495
37.67 	0.053222 	4904 	0.052505
37.71 	0.056807 	4929 	0.055856
37.75 	0.053441 	4940 	0.052967
37.79 	0.057606 	4930 	0.056537
37.83 	0.057520 	4920 	0.056211
37.87 	0.058311 	4939 	0.057481
37.91 	0.059026 	4930 	0.057957
37.95 	0.059134 	4921 	0.058420
37.99 	0.056393 	4912 	0.055558
38.03 	0.056631 	4909 	0.055776
38.07 	0.056020 	4909 	0.055184
38.11 	0.058764 	4935 	0.058289
38.15 	0.057340 	4918 	0.056149
38.19 	0.065517 	4930 	0.063715
38.23 	0.062981 	4938 	0.061795
38.27 	0.060649 	4930 	0.060411
38.31 	0.064136 	4927 	0.063166
38.35 	0.065747 	4928 	0.065034
38.39 	0.066612 	4909 	0.065419
38.43 	0.065704 	4916 	0.064631
38.47 	0.069900 	4907 	0.068448
38.51 	0.066707 	4932 	0.065757
38.55 	0.065843 	4936 	0.064419
38.59 	0.053818 	4924 	0.053223
38.63 	0.063566 	4924 	0.063090
38.67 	0.060158 	4937 	0.059683
38.71 	0.057271 	4924 	0.055585
38.75 	0.058453 	4927 	0.056769
38.79 	0.053912 	4934 	0.052724
38.83 	0.049604 	4919 	0.049108
38.87 	0.044797 	4911 	0.043962
38.91 	0.055068 	4903 	0.054113
38.95 	0.054697 	4918 	0.053625
38.99 	0.050233 	4937 	0.049521
39.03 	0.058573 	4934 	0.057980
39.07 	0.053006 	4924 	0.052173
39.11 	0.052728 	4931 	0.052252
39.15 	0.056562 	4915 	0.055469
39.19 	0.055725 	4917 	0.054772
39.23 	0.050964 	4925 	0.050013
39.27 	0.052138 	4910 	0.051781
39.31 	0.053030 	4884 	0.052071
39.35 	0.056535 	4935 	0.055348
39.39 	0.055995 	4929 	0.055025
39.43 	0.055544 	4933 	0.055188
39.47 	0.053423 	4923 	0.053066
39.51 	0.054630 	4924 	0.054273
39.55 	0.057125 	4919 	0.056530
39.59 	0.061482 	4912 	0.060170
39.63 	0.056075 	4922 	0.055004
39.67 	0.054956 	4913 	0.054122
39.71 	0.060878 	4895 	0.059921
39.75 	0.060674 	4928 	0.059604
39.79 	0.065976 	4926 	0.064649
39.83 	0.058168 	4934 	0.056743
39.87 	0.052995 	4925 	0.052262
39.91 	0.058919 	4922 	0.057372
39.95 	0.052492 	4915 	0.051420
39.99 	0.051095 	4932 	0.050620
40.03 	0.051948 	4928 	0.051354
40.07 	0.058907 	4923 	0.057479
40.11 	0.055736 	4916 	0.055260
40.15 	0.053328 	4913 	0.052016
40.19 	0.055184 	4929 	0.054589
40.23 	0.053731 	4932 	0.052761
40.27 	0.053474 	4937 	0.053118
40.31 	0.054262 	4939 	0.053432
40.35 	0.056312 	4919 	0.055598
40.39 	0.057189 	4931 	0.056120
40.43 	0.049573 	4922 	0.049216
40.47 	0.051444 	4918 	0.050590
40.51 	0.050589 	4922 	0.049994
40.55 	0.048696 	4908 	0.048099
40.59 	0.052664 	4937 	0.052189
40.63 	0.057809 	4930 	0.057077
40.67 	0.050487 	4932 	0.049418
40.71 	0.054745 	4932 	0.054151
40.75 	0.049077 	4931 	0.048483
40.79 	0.054427 	4924 	0.052623
40.83 	0.050325 	4928 	0.049730
40.87 	0.045455 	4928 	0.044741
40.91 	0.051595 	4923 	0.051238
40.95 	0.051903 	4913 	0.051307
40.99 	0.056661 	4924 	0.055690
41.03 	0.055046 	4905 	0.053971
41.07 	0.051724 	4930 	0.050655
41.11 	0.052077 	4935 	0.051365
41.15 	0.053026 	4941 	0.052196
41.19 	0.054158 	4930 	0.053326
41.23 	0.051832 	4939 	0.051121
41.27 	0.052119 	4931 	0.051406
41.31 	0.052706 	4933 	0.051737
41.35 	0.055893 	4938 	0.055300
41.39 	0.052706 	4933 	0.051737
41.43 	0.049097 	4929 	0.048622
41.47 	0.049736 	4926 	0.048904
41.51 	0.047368 	4940 	0.046538
41.55 	0.053901 	4935 	0.052714
41.59 	0.053314 	4933 	0.052483
41.63 	0.050020 	4938 	0.048597
41.67 	0.052429 	4940 	0.051243
41.71 	0.041548 	4934 	0.040955
41.75 	0.048083 	4929 	0.047370
41.79 	0.047735 	4944 	0.047123
41.83 	0.045455 	4928 	0.045217
41.87 	0.044580 	4935 	0.044223
41.91 	0.052269 	4936 	0.051676
41.95 	0.049280 	4931 	0.048567
41.99 	0.042202 	4905 	0.041246
42.03 	0.048795 	4939 	0.047965
42.07 	0.045574 	4937 	0.045456
42.11 	0.052174 	4945 	0.051226
42.15 	0.045362 	4938 	0.044750
42.19 	0.048900 	4908 	0.048661
42.23 	0.052330 	4892 	0.050893
42.27 	0.050882 	4874 	0.050161
42.31 	0.046756 	4855 	0.046032
42.35 	0.043613 	4838 	0.043371
42.39 	0.049750 	4804 	0.048775
42.43 	0.045910 	4792 	0.045421
42.47 	0.048269 	4765 	0.048023
42.51 	0.044697 	4743 	0.043956
42.55 	0.045667 	4708 	0.045667
42.59 	0.046310 	4729 	0.045195
42.63 	0.039074 	4709 	0.038825
42.67 	0.051238 	4684 	0.049863
42.71 	0.049539 	4663 	0.049162
42.75 	0.044834 	4617 	0.044454
42.79 	0.048450 	4582 	0.047172
42.83 	0.049824 	4536 	0.049565
42.87 	0.048011 	4499 	0.047099
42.91 	0.051616 	4456 	0.050696
42.95 	0.053442 	4416 	0.052492
42.99 	0.048803 	4385 	0.048268
43.03 	0.049388 	4333 	0.048307
43.07 	0.054236 	4296 	0.053418
43.11 	0.043008 	4255 	0.042182
43.15 	0.053257 	4206 	0.052282
43.19 	0.047926 	4194 	0.046948
43.23 	0.046461 	4154 	0.045756
43.27 	0.045311 	4105 	0.044169
43.31 	0.053199 	4079 	0.052050
43.35 	0.039683 	4032 	0.039101
43.39 	0.049225 	4002 	0.048347
43.43 	0.049747 	3960 	0.048663
43.47 	0.042591 	3921 	0.041521
43.51 	0.049007 	3877 	0.048252
43.55 	0.050607 	2964 	0.050410
43.59 	0.045246 	1746 	0.044575
43.63 	0.037962 	1001 	0.037962
43.67 	0.045817 	502 	0.044650
43.71 	0.046025 	239 	0.043574
43.75 	0.062500 	16 	0.062500