Folder: Bessy-II-KMC-II-insitu-sin2psi/Example_Data (part 73)

File: 25SC_s1_0029.003.dat
#F C:\frames\spec\25SC_s1_0029.003
#C title =s:29 frm:3 25SC_s1
#C wavelength =0.15406

#S 1  fr_average C:\frames\spec\25SC_s1_0029.003 C:\win32app\speccom\mask.axs chi 0 180 0 360 0.02
#C 2 theta =0.000000 to 180 deg
#C   q   =0.000000 to 81.568 nm^-1
#C  chi  =0.000000 to 360 deg
#C collumns:
#C  1 position (2theta or chi in degrees)
#C  2 average intensity (sum of all counts in the region divided with number of pixels)
#C  3 Number of pixels in region)
#C  4 error (sum of sqrt(intensity) for all pixels divided by number)
#N 4
#L TTh  Int  N_pix  Err
32.99 	0.032787 	61 	0.032787
33.03 	0.057513 	1391 	0.056670
33.07 	0.061463 	2050 	0.060035
33.11 	0.063978 	2579 	0.061670
33.15 	0.054685 	2999 	0.053904
33.19 	0.058648 	3342 	0.057946
33.23 	0.058473 	3523 	0.057309
33.27 	0.062259 	3630 	0.061291
33.31 	0.052732 	3660 	0.052412
33.35 	0.062534 	3694 	0.061582
33.39 	0.068383 	3729 	0.066655
33.43 	0.054241 	3761 	0.052683
33.47 	0.060821 	3798 	0.059408
33.51 	0.057929 	3815 	0.056240
33.55 	0.061410 	3843 	0.060191
33.59 	0.054897 	3880 	0.053991
33.63 	0.069916 	3919 	0.068122
33.67 	0.060951 	3954 	0.059618
33.71 	0.054843 	3975 	0.053811
33.75 	0.061015 	3999 	0.059843
33.79 	0.055927 	4041 	0.054622
33.83 	0.061728 	4050 	0.061150
33.87 	0.057407 	4111 	0.056837
33.91 	0.060497 	4149 	0.059649
33.95 	0.065056 	4181 	0.062534
33.99 	0.059286 	4200 	0.058170
34.03 	0.053723 	4244 	0.053447
34.07 	0.062793 	4268 	0.061558
34.11 	0.063459 	4302 	0.062778
34.15 	0.054953 	4331 	0.054141
34.19 	0.058230 	4362 	0.057022
34.23 	0.066014 	4393 	0.064814
34.27 	0.060380 	4422 	0.059585
34.31 	0.060565 	4458 	0.059383
34.35 	0.053747 	4484 	0.052832
34.39 	0.059751 	4502 	0.058971
34.43 	0.057281 	4539 	0.056507
34.47 	0.057709 	4592 	0.056561
34.51 	0.055363 	4606 	0.054599
34.55 	0.062029 	4643 	0.060767
34.59 	0.054118 	4675 	0.053616
34.63 	0.063482 	4710 	0.062238
34.67 	0.056317 	4741 	0.055185
34.71 	0.056022 	4766 	0.054793
34.75 	0.058236 	4808 	0.057018
34.79 	0.052446 	4824 	0.051596
34.83 	0.055738 	4862 	0.054052
34.87 	0.058135 	4868 	0.057533
34.91 	0.054896 	4882 	0.053936
34.95 	0.059509 	4890 	0.058052
34.99 	0.059220 	4897 	0.058602
35.03 	0.059680 	4943 	0.058614
35.07 	0.055061 	4940 	0.054468
35.11 	0.061047 	4947 	0.060100
35.15 	0.054892 	4937 	0.054180
35.19 	0.064549 	4942 	0.064075
35.23 	0.056016 	4945 	0.055779
35.27 	0.051132 	4948 	0.050658
35.31 	0.057977 	4933 	0.057621
35.35 	0.055443 	4942 	0.054613
35.39 	0.054196 	4945 	0.053130
35.43 	0.062234 	4933 	0.061284
35.47 	0.053133 	4931 	0.052302
35.51 	0.059683 	4926 	0.058118
35.55 	0.059454 	4945 	0.058743
35.59 	0.053589 	4945 	0.052523
35.63 	0.061703 	4943 	0.060281
35.67 	0.054634 	4942 	0.053923
35.71 	0.051853 	4937 	0.050785
35.75 	0.059420 	4931 	0.059182
35.79 	0.053528 	4932 	0.053053
35.83 	0.053983 	4946 	0.053490
35.87 	0.055048 	4923 	0.053957
35.91 	0.055206 	4927 	0.054255
35.95 	0.057555 	4917 	0.056602
35.99 	0.051630 	4939 	0.051155
36.03 	0.054218 	4943 	0.053507
36.07 	0.055882 	4939 	0.055407
36.11 	0.054575 	4929 	0.053624
36.15 	0.056894 	4939 	0.055945
36.19 	0.062551 	4940 	0.060515
36.23 	0.057143 	4935 	0.056431
36.27 	0.052183 	4925 	0.051112
36.31 	0.053571 	4928 	0.052858
36.35 	0.052546 	4929 	0.050882
36.39 	0.058321 	4921 	0.057369
36.43 	0.050528 	4928 	0.050052
36.47 	0.058549 	4936 	0.057719
36.51 	0.054328 	4933 	0.053497
36.55 	0.052365 	4927 	0.051651
36.59 	0.054262 	4939 	0.053432
36.63 	0.057392 	4931 	0.056560
36.67 	0.052941 	4930 	0.052109
36.71 	0.048974 	4921 	0.047902
36.75 	0.054409 	4944 	0.053343
36.79 	0.060354 	4921 	0.059520
36.83 	0.056968 	4915 	0.055777
36.87 	0.050971 	4944 	0.049431
36.91 	0.047359 	4941 	0.046509
36.95 	0.055342 	4933 	0.054372
36.99 	0.054103 	4935 	0.053154
37.03 	0.057067 	4924 	0.055997
37.07 	0.056535 	4935 	0.056179
37.11 	0.055117 	4935 	0.053692
37.15 	0.053779 	4909 	0.053301
37.19 	0.053198 	4925 	0.052603
37.23 	0.052054 	4918 	0.051577
37.27 	0.048427 	4894 	0.047828
37.31 	0.052888 	4935 	0.052175
37.35 	0.049008 	4938 	0.048770
37.39 	0.051308 	4931 	0.050952
37.43 	0.065693 	4932 	0.064743
37.47 	0.049503 	4929 	0.049028
37.51 	0.053314 	4933 	0.052008
37.55 	0.056795 	4930 	0.055845
37.59 	0.047813 	4915 	0.046979
37.63 	0.052043 	4919 	0.051805
37.67 	0.057096 	4904 	0.055902
37.71 	0.051938 	4929 	0.051343
37.75 	0.049595 	4940 	0.049002
37.79 	0.048479 	4930 	0.047409
37.83 	0.045325 	4920 	0.044968
37.87 	0.056084 	4939 	0.055610
37.91 	0.048884 	4930 	0.047696
37.95 	0.042268 	4921 	0.041792
37.99 	0.054764 	4912 	0.053691
38.03 	0.050112 	4909 	0.049396
38.07 	0.049705 	4909 	0.048869
38.11 	0.052685 	4935 	0.051854
38.15 	0.050427 	4918 	0.049831
38.19 	0.052738 	4930 	0.051155
38.23 	0.055691 	4938 	0.054504
38.27 	0.049899 	4930 	0.049661
38.31 	0.061498 	4927 	0.060309
38.35 	0.066558 	4928 	0.065251
38.39 	0.053982 	4909 	0.053386
38.43 	0.060008 	4916 	0.059055
38.47 	0.056450 	4907 	0.055853
38.51 	0.057989 	4932 	0.057038
38.55 	0.053687 	4936 	0.052856
38.59 	0.050366 	4924 	0.049771
38.63 	0.048741 	4924 	0.048503
38.67 	0.054689 	4937 	0.053483
38.71 	0.049756 	4924 	0.049161
38.75 	0.049929 	4927 	0.048978
38.79 	0.049250 	4934 	0.048637
38.83 	0.047774 	4919 	0.047179
38.87 	0.050499 	4911 	0.050141
38.91 	0.052213 	4903 	0.051377
38.95 	0.054087 	4918 	0.053253
38.99 	0.046790 	4937 	0.046315
39.03 	0.048642 	4934 	0.047811
39.07 	0.052193 	4924 	0.051242
39.11 	0.046846 	4931 	0.046490
39.15 	0.044354 	4915 	0.043520
39.19 	0.051251 	4917 	0.050655
39.23 	0.048528 	4925 	0.047457
39.27 	0.046640 	4910 	0.046162
39.31 	0.048526 	4884 	0.048046
39.35 	0.050051 	4935 	0.049695
39.39 	0.045851 	4929 	0.045138
39.43 	0.044395 	4933 	0.044039
39.47 	0.048548 	4923 	0.047715
39.51 	0.047725 	4924 	0.047250
39.55 	0.049197 	4919 	0.048602
39.59 	0.050489 	4912 	0.050250
39.63 	0.051605 	4922 	0.049820
39.67 	0.046407 	4913 	0.045811
39.71 	0.047191 	4895 	0.046214
39.75 	0.046875 	4928 	0.046380
39.79 	0.048518 	4926 	0.047805
39.83 	0.043778 	4934 	0.043066
39.87 	0.043858 	4925 	0.043144
39.91 	0.045307 	4922 	0.044216
39.95 	0.042116 	4915 	0.041639
39.99 	0.046229 	4932 	0.044922
40.03 	0.048498 	4928 	0.047904
40.07 	0.047938 	4923 	0.047581
40.11 	0.046176 	4916 	0.045222
40.15 	0.043965 	4913 	0.043011
40.19 	0.045851 	4929 	0.045475
40.23 	0.048459 	4932 	0.048103
40.27 	0.041928 	4937 	0.041572
40.31 	0.047580 	4939 	0.046869
40.35 	0.047571 	4919 	0.046975
40.39 	0.049686 	4931 	0.048973
40.43 	0.044088 	4922 	0.043374
40.47 	0.046767 	4918 	0.045794
40.51 	0.051199 	4922 	0.050247
40.55 	0.045844 	4908 	0.045108
40.59 	0.043751 	4937 	0.043039
40.63 	0.045639 	4930 	0.045520
40.67 	0.042376 	4932 	0.041664
40.71 	0.048054 	4932 	0.047341
40.75 	0.044818 	4931 	0.043868
40.79 	0.046101 	4924 	0.045506
40.83 	0.045252 	4928 	0.044776
40.87 	0.043628 	4928 	0.043153
40.91 	0.045501 	4923 	0.044906
40.95 	0.043965 	4913 	0.043488
40.99 	0.045288 	4924 	0.045050
41.03 	0.044444 	4905 	0.043967
41.07 	0.043611 	4930 	0.042898
41.11 	0.043972 	4935 	0.043141
41.15 	0.043513 	4941 	0.043158
41.19 	0.045842 	4930 	0.044654
41.23 	0.047378 	4939 	0.047022
41.27 	0.042182 	4931 	0.041826
41.31 	0.049057 	4933 	0.048464
41.35 	0.042932 	4938 	0.042576
41.39 	0.046422 	4933 	0.046066
41.43 	0.046663 	4929 	0.045712
41.47 	0.044255 	4926 	0.043898
41.51 	0.042510 	4940 	0.042154
41.55 	0.042553 	4935 	0.042316
41.59 	0.044192 	4933 	0.043480
41.63 	0.042527 	4938 	0.041578
41.67 	0.043117 	4940 	0.042880
41.71 	0.040738 	4934 	0.039669
41.75 	0.046460 	4929 	0.045509
41.79 	0.043689 	4944 	0.042860
41.83 	0.042817 	4928 	0.042222
41.87 	0.038298 	4935 	0.037823
41.91 	0.040721 	4936 	0.040365
41.95 	0.047049 	4931 	0.046337
41.99 	0.046483 	4905 	0.046244
42.03 	0.039684 	4939 	0.038716
42.07 	0.038080 	4937 	0.037724
42.11 	0.038827 	4945 	0.038472
42.15 	0.042730 	4938 	0.042137
42.19 	0.038712 	4908 	0.038354
42.23 	0.039861 	4892 	0.039143
42.27 	0.046368 	4874 	0.045647
42.31 	0.046756 	4855 	0.046273
42.35 	0.040926 	4838 	0.040684
42.39 	0.043714 	4804 	0.043226
42.43 	0.044866 	4792 	0.044377
42.47 	0.042183 	4765 	0.041937
42.51 	0.047649 	4743 	0.046785
42.55 	0.044180 	4708 	0.043682
42.59 	0.045464 	4729 	0.044969
42.63 	0.044808 	4709 	0.044061
42.67 	0.041204 	4684 	0.040454
42.71 	0.038602 	4663 	0.038351
42.75 	0.043535 	4617 	0.043027
42.79 	0.042340 	4582 	0.041445
42.83 	0.039462 	4536 	0.039333
42.87 	0.032674 	4499 	0.032153
42.91 	0.036580 	4456 	0.036448
42.95 	0.041440 	4416 	0.041042
42.99 	0.043786 	4385 	0.043385
43.03 	0.039465 	4333 	0.038902
43.07 	0.039339 	4296 	0.039339
43.11 	0.040423 	4255 	0.040148
43.15 	0.042083 	4206 	0.041665
43.19 	0.041726 	4194 	0.041307
43.23 	0.036351 	4154 	0.035927
43.27 	0.037515 	4105 	0.037230
43.31 	0.039961 	4079 	0.039674
43.35 	0.042907 	4032 	0.042761
43.39 	0.043478 	4002 	0.043332
43.43 	0.037374 	3960 	0.036930
43.47 	0.038256 	3921 	0.037335
43.51 	0.041269 	3877 	0.040489
43.55 	0.045884 	2964 	0.044698
43.59 	0.035510 	1746 	0.035174
43.63 	0.030969 	1001 	0.030384
43.67 	0.033865 	502 	0.033865
43.71 	0.046025 	239 	0.046025
43.75 	0.000000 	16 	0.000000

File: 25SC_s1_0029.004.dat
#F C:\frames\spec\25SC_s1_0029.004
#C title =s:29 frm:4 25SC_s1
#C wavelength =0.15406

#S 1  fr_average C:\frames\spec\25SC_s1_0029.004 C:\win32app\speccom\mask.axs chi 0 180 0 360 0.02
#C 2 theta =0.000000 to 180 deg
#C   q   =0.000000 to 81.568 nm^-1
#C  chi  =0.000000 to 360 deg
#C collumns:
#C  1 position (2theta or chi in degrees)
#C  2 average intensity (sum of all counts in the region divided with number of pixels)
#C  3 Number of pixels in region)
#C  4 error (sum of sqrt(intensity) for all pixels divided by number)
#N 4
#L TTh  Int  N_pix  Err
32.99 	0.032787 	61 	0.032787
33.03 	0.055356 	1391 	0.053250
33.07 	0.047317 	2050 	0.046174
33.11 	0.050795 	2579 	0.049432
33.15 	0.055018 	2999 	0.054237
33.19 	0.058049 	3342 	0.057523
33.23 	0.063298 	3523 	0.062134
33.27 	0.051515 	3630 	0.050708
33.31 	0.064208 	3660 	0.063087
33.35 	0.059285 	3694 	0.058017
33.39 	0.058193 	3729 	0.056936
33.43 	0.054507 	3761 	0.054040
33.47 	0.063191 	3798 	0.062883
33.51 	0.056619 	3815 	0.055390
33.55 	0.059589 	3843 	0.058522
33.59 	0.056186 	3880 	0.055884
33.63 	0.058433 	3919 	0.058134
33.67 	0.058675 	3954 	0.057045
33.71 	0.053836 	3975 	0.053394
33.75 	0.057014 	3999 	0.056575
33.79 	0.059886 	4041 	0.058726
33.83 	0.056543 	4050 	0.055820
33.87 	0.063975 	4111 	0.063262
33.91 	0.053025 	4149 	0.052601
33.95 	0.060512 	4181 	0.059251
33.99 	0.052857 	4200 	0.052160
34.03 	0.059378 	4244 	0.057975
34.07 	0.064199 	4268 	0.062941
34.11 	0.058345 	4302 	0.057664
34.15 	0.056800 	4331 	0.056124
34.19 	0.056167 	4362 	0.055227
34.23 	0.050535 	4393 	0.049468
34.27 	0.055179 	4422 	0.054230
34.31 	0.057425 	4458 	0.056636
34.35 	0.054639 	4484 	0.053594
34.39 	0.059973 	4502 	0.057891
34.43 	0.055078 	4539 	0.054820
34.47 	0.060976 	4592 	0.059828
34.51 	0.055580 	4606 	0.054562
34.55 	0.058367 	4643 	0.057484
34.59 	0.057326 	4675 	0.055697
34.63 	0.065180 	4710 	0.063937
34.67 	0.060536 	4741 	0.059794
34.71 	0.057071 	4766 	0.056456
34.75 	0.057612 	4808 	0.056394
34.79 	0.053897 	4824 	0.053533
34.83 	0.054916 	4862 	0.054554
34.87 	0.056286 	4868 	0.055203
34.91 	0.062884 	4882 	0.061424
34.95 	0.062986 	4890 	0.062507
34.99 	0.060649 	4897 	0.059812
35.03 	0.055027 	4943 	0.054198
35.07 	0.057895 	4940 	0.056946
35.11 	0.057813 	4947 	0.056629
35.15 	0.053069 	4937 	0.052475
35.19 	0.059895 	4942 	0.058828
35.23 	0.057836 	4945 	0.057362
35.27 	0.060631 	4948 	0.059328
35.31 	0.053112 	4933 	0.052162
35.35 	0.058276 	4942 	0.057446
35.39 	0.055207 	4945 	0.054378
35.43 	0.059599 	4933 	0.058154
35.47 	0.056378 	4931 	0.055408
35.51 	0.058059 	4926 	0.057108
35.55 	0.058443 	4945 	0.057258
35.59 	0.058241 	4945 	0.057175
35.63 	0.054420 	4943 	0.053591
35.67 	0.053217 	4942 	0.052862
35.71 	0.058335 	4937 	0.057386
35.75 	0.056784 	4931 	0.055358
35.79 	0.056772 	4932 	0.056059
35.83 	0.057218 	4946 	0.055915
35.87 	0.054438 	4923 	0.053486
35.91 	0.052770 	4927 	0.051582
35.95 	0.057962 	4917 	0.057009
35.99 	0.056692 	4939 	0.055861
36.03 	0.051386 	4943 	0.050912
36.07 	0.055882 	4939 	0.055526
36.11 	0.057212 	4929 	0.056499
36.15 	0.056084 	4939 	0.055135
36.19 	0.057085 	4940 	0.056136
36.23 	0.055319 	4935 	0.054607
36.27 	0.054619 	4925 	0.053668
36.31 	0.060471 	4928 	0.059758
36.35 	0.052952 	4929 	0.052714
36.39 	0.053038 	4921 	0.052205
36.43 	0.056412 	4928 	0.055580
36.47 	0.054903 	4936 	0.054191
36.51 	0.052706 	4933 	0.051994
36.55 	0.052567 	4927 	0.051973
36.59 	0.053452 	4939 	0.052622
36.63 	0.059420 	4931 	0.058588
36.67 	0.056389 	4930 	0.055677
36.71 	0.057305 	4921 	0.055857
36.75 	0.054005 	4944 	0.053412
36.79 	0.052428 	4921 	0.051595
36.83 	0.055748 	4915 	0.055152
36.87 	0.054409 	4944 	0.053817
36.91 	0.049990 	4941 	0.048567
36.95 	0.055544 	4933 	0.054594
36.99 	0.049848 	4935 	0.049017
37.03 	0.050975 	4924 	0.050499
37.07 	0.051469 	4935 	0.051113
37.11 	0.052888 	4935 	0.051701
37.15 	0.051945 	4909 	0.051110
37.19 	0.055635 	4925 	0.054683
37.23 	0.056120 	4918 	0.055525
37.27 	0.055578 	4894 	0.054621
37.31 	0.056940 	4935 	0.055397
37.35 	0.053868 	4938 	0.053393
37.39 	0.055972 	4931 	0.054903
37.43 	0.051703 	4932 	0.050991
37.47 	0.055995 	4929 	0.055381
37.51 	0.055342 	4933 	0.054629
37.55 	0.053347 	4930 	0.052990
37.59 	0.055137 	4915 	0.054422
37.63 	0.049197 	4919 	0.048363
37.67 	0.057708 	4904 	0.056613
37.71 	0.053358 	4929 	0.052882
37.75 	0.057692 	4940 	0.056862
37.79 	0.051724 	4930 	0.050992
37.83 	0.056504 	4920 	0.056147
37.87 	0.055882 	4939 	0.055170
37.91 	0.054970 	4930 	0.054019
37.95 	0.056289 	4921 	0.055079
37.99 	0.047435 	4912 	0.046481
38.03 	0.053371 	4909 	0.052775
38.07 	0.055816 	4909 	0.055080
38.11 	0.060588 	4935 	0.059638
38.15 	0.056527 	4918 	0.055693
38.19 	0.059635 	4930 	0.058803
38.23 	0.057918 	4938 	0.056851
38.27 	0.068154 	4930 	0.066828
38.31 	0.066166 	4927 	0.064006
38.35 	0.058239 	4928 	0.057763
38.39 	0.063760 	4909 	0.063164
38.43 	0.068755 	4916 	0.067563
38.47 	0.065621 	4907 	0.064785
38.51 	0.063666 	4932 	0.062003
38.55 	0.056929 	4936 	0.056078
38.59 	0.057067 	4924 	0.056066
38.63 	0.053412 	4924 	0.052817
38.67 	0.059550 	4937 	0.058720
38.71 	0.054427 	4924 	0.053595
38.75 	0.052567 	4927 	0.051497
38.79 	0.051682 	4934 	0.051089
38.83 	0.053873 	4919 	0.052682
38.87 	0.056608 	4911 	0.055037
38.91 	0.051193 	4903 	0.050237
38.95 	0.056730 	4918 	0.055658
38.99 	0.047397 	4937 	0.046329
39.03 	0.048034 	4934 	0.047183
39.07 	0.051381 	4924 	0.050429
39.11 	0.054756 	4931 	0.053924
39.15 	0.048423 	4915 	0.047470
39.19 	0.054301 	4917 	0.053587
39.23 	0.050355 	4925 	0.049761
39.27 	0.053768 	4910 	0.053171
39.31 	0.055283 	4884 	0.054323
39.35 	0.050861 	4935 	0.050030
39.39 	0.055589 	4929 	0.054757
39.43 	0.055342 	4933 	0.054392
39.47 	0.052813 	4923 	0.052337
39.51 	0.058286 	4924 	0.057334
39.55 	0.055702 	4919 	0.054492
39.59 	0.054764 	4912 	0.053691
39.63 	0.047948 	4922 	0.046758
39.67 	0.055974 	4913 	0.055259
39.71 	0.053933 	4895 	0.053334
39.75 	0.053166 	4928 	0.051977
39.79 	0.053999 	4926 	0.052810
39.83 	0.054317 	4934 	0.053961
39.87 	0.057462 	4925 	0.056273
39.91 	0.052215 	4922 	0.051262
39.95 	0.048627 	4915 	0.048031
39.99 	0.049270 	4932 	0.048419
40.03 	0.051745 	4928 	0.051389
40.07 	0.044891 	4923 	0.044177
40.11 	0.056143 	4916 	0.055071
40.15 	0.053939 	4913 	0.052746
40.19 	0.050720 	4929 	0.049413
40.23 	0.050284 	4932 	0.049077
40.27 	0.052461 	4937 	0.051630
40.31 	0.052642 	4939 	0.051812
40.35 	0.057939 	4919 	0.056748
40.39 	0.055770 	4931 	0.055156
40.43 	0.054449 	4922 	0.053973
40.47 	0.049207 	4918 	0.047778
40.51 	0.052824 	4922 	0.051872
40.55 	0.052567 	4908 	0.051970
40.59 	0.045372 	4937 	0.045016
40.63 	0.045436 	4930 	0.044842
40.67 	0.052920 	4932 	0.052326
40.71 	0.051500 	4932 	0.050669
40.75 	0.053944 	4931 	0.053350
40.79 	0.051990 	4924 	0.050682
40.83 	0.049513 	4928 	0.048562
40.87 	0.050528 	4928 	0.049814
40.91 	0.050985 	4923 	0.049914
40.95 	0.054346 	4913 	0.053511
40.99 	0.050162 	4924 	0.049330
41.03 	0.050968 	4905 	0.050252
41.07 	0.053753 	4930 	0.053040
41.11 	0.056940 	4935 	0.056465
41.15 	0.052216 	4941 	0.051604
41.19 	0.048884 	4930 	0.047815
41.23 	0.056084 	4939 	0.055728
41.27 	0.048063 	4931 	0.047350
41.31 	0.053314 	4933 	0.052364
41.35 	0.047388 	4938 	0.046913
41.39 	0.052301 	4933 	0.051826
41.43 	0.051532 	4929 	0.050700
41.47 	0.043646 	4926 	0.042932
41.51 	0.048381 	4940 	0.047788
41.55 	0.055522 	4935 	0.054691
41.59 	0.053112 	4933 	0.051687
41.63 	0.048198 	4938 	0.047842
41.67 	0.048785 	4940 	0.047244
41.71 	0.050061 	4934 	0.049467
41.75 	0.045851 	4929 	0.045000
41.79 	0.052184 	4944 	0.051118
41.83 	0.052963 	4928 	0.052131
41.87 	0.052888 	4935 	0.051938
41.91 	0.051864 	4936 	0.050677
41.95 	0.043805 	4931 	0.043191
41.99 	0.049134 	4905 	0.048536
42.03 	0.045758 	4939 	0.045047
42.07 	0.044967 	4937 	0.044255
42.11 	0.045905 	4945 	0.045313
42.15 	0.049210 	4938 	0.048617
42.19 	0.045844 	4908 	0.045366
42.23 	0.049877 	4892 	0.049518
42.27 	0.044317 	4874 	0.043956
42.31 	0.045726 	4855 	0.045123
42.35 	0.047747 	4838 	0.046899
42.39 	0.038926 	4804 	0.038682
42.43 	0.042154 	4792 	0.041665
42.47 	0.050367 	4765 	0.049998
42.51 	0.047227 	4743 	0.047104
42.55 	0.044605 	4708 	0.043962
42.59 	0.046944 	4729 	0.046573
42.63 	0.051179 	4709 	0.050183
42.67 	0.045901 	4684 	0.045151
42.71 	0.049539 	4663 	0.048911
42.75 	0.045051 	4617 	0.044670
42.79 	0.041685 	4582 	0.040641
42.83 	0.047619 	4536 	0.047361
42.87 	0.049122 	4499 	0.048211
42.91 	0.039048 	4456 	0.038391
42.95 	0.038723 	4416 	0.038192
42.99 	0.043101 	4385 	0.042968
43.03 	0.044311 	4333 	0.044176
43.07 	0.048650 	4296 	0.048104
43.11 	0.047004 	4255 	0.046315
43.15 	0.053971 	4206 	0.052717
43.19 	0.044588 	4194 	0.044168
43.23 	0.049109 	4154 	0.047958
43.27 	0.049208 	4105 	0.048923
43.31 	0.045354 	4079 	0.044493
43.35 	0.042659 	4032 	0.042659
43.39 	0.044978 	4002 	0.044538
43.43 	0.049242 	3960 	0.048799
43.47 	0.046162 	3921 	0.045863
43.51 	0.049007 	3877 	0.047949
43.55 	0.051957 	2964 	0.050969
43.59 	0.041810 	1746 	0.041139
43.63 	0.038961 	1001 	0.038376
43.67 	0.041833 	502 	0.041833
43.71 	0.025105 	239 	0.025105
43.75 	0.062500 	16 	0.062500