Folder: Bessy-II-KMC-II-insitu-sin2psi/Example_Data (part 64)

File: 25SC_s1_0026.000.dat
#F C:\frames\spec\25SC_s1_0026.000
#C title =s:26 frm:0 25SC_s1
#C wavelength =0.15406

#S 1  fr_average C:\frames\spec\25SC_s1_0026.000 C:\win32app\speccom\mask.axs chi 0 180 0 360 0.02
#C 2 theta =0.000000 to 180 deg
#C   q   =0.000000 to 81.568 nm^-1
#C  chi  =0.000000 to 360 deg
#C collumns:
#C  1 position (2theta or chi in degrees)
#C  2 average intensity (sum of all counts in the region divided with number of pixels)
#C  3 Number of pixels in region)
#C  4 error (sum of sqrt(intensity) for all pixels divided by number)
#N 4
#L TTh  Int  N_pix  Err
32.99 	0.065574 	61 	0.065574
33.03 	0.071891 	1391 	0.069785
33.07 	0.060976 	2050 	0.060976
33.11 	0.064754 	2579 	0.064072
33.15 	0.056019 	2999 	0.055237
33.19 	0.061341 	3342 	0.060464
33.23 	0.061311 	3523 	0.060979
33.27 	0.059780 	3630 	0.059295
33.31 	0.055191 	3660 	0.054231
33.35 	0.062534 	3694 	0.061424
33.39 	0.060338 	3729 	0.059081
33.43 	0.059027 	3761 	0.057625
33.47 	0.056872 	3798 	0.056409
33.51 	0.060026 	3815 	0.059412
33.55 	0.048139 	3843 	0.047682
33.59 	0.053351 	3880 	0.052143
33.63 	0.065323 	3919 	0.064426
33.67 	0.057663 	3954 	0.055885
33.71 	0.064151 	3975 	0.062358
33.75 	0.056764 	3999 	0.055739
33.79 	0.065330 	4041 	0.064461
33.83 	0.064198 	4050 	0.062607
33.87 	0.055461 	4111 	0.054606
33.91 	0.059291 	4149 	0.058303
33.95 	0.061708 	4181 	0.061147
33.99 	0.063810 	4200 	0.062973
34.03 	0.053487 	4244 	0.052659
34.07 	0.054358 	4268 	0.053809
34.11 	0.058810 	4302 	0.058538
34.15 	0.054260 	4331 	0.053313
34.19 	0.057542 	4362 	0.056199
34.23 	0.051673 	4393 	0.051406
34.27 	0.059928 	4422 	0.059000
34.31 	0.054284 	4458 	0.053496
34.35 	0.061775 	4484 	0.060578
34.39 	0.058196 	4502 	0.057025
34.43 	0.060145 	4539 	0.059242
34.47 	0.053789 	4592 	0.052131
34.51 	0.058185 	4606 	0.057422
34.55 	0.059014 	4643 	0.058130
34.59 	0.058610 	4675 	0.057983
34.63 	0.052866 	4710 	0.051996
34.67 	0.060325 	4741 	0.059563
34.71 	0.056861 	4766 	0.056369
34.75 	0.052413 	4808 	0.052047
34.79 	0.060323 	4824 	0.058866
34.83 	0.053476 	4862 	0.053114
34.87 	0.057108 	4868 	0.056025
34.91 	0.052642 	4882 	0.052162
34.95 	0.056442 	4890 	0.055483
34.99 	0.052890 	4897 	0.051574
35.03 	0.058264 	4943 	0.057553
35.07 	0.057287 	4940 	0.056220
35.11 	0.059834 	4947 	0.058887
35.15 	0.056107 	4937 	0.055395
35.19 	0.058074 	4942 	0.057362
35.23 	0.055410 	4945 	0.054699
35.27 	0.057599 	4948 	0.056159
35.31 	0.052909 	4933 	0.052315
35.35 	0.060502 	4942 	0.060028
35.39 	0.058038 	4945 	0.056834
35.43 	0.052504 	4933 	0.051554
35.47 	0.063273 	4931 	0.061966
35.51 	0.055014 	4926 	0.054420
35.55 	0.055814 	4945 	0.054629
35.59 	0.057634 	4945 	0.056805
35.63 	0.059883 	4943 	0.058342
35.67 	0.049373 	4942 	0.048899
35.71 	0.054487 	4937 	0.053162
35.75 	0.057392 	4931 	0.056679
35.79 	0.054745 	4932 	0.053676
35.83 	0.065305 	4946 	0.063884
35.87 	0.054438 	4923 	0.053248
35.91 	0.055409 	4927 	0.054696
35.95 	0.055115 	4917 	0.054162
35.99 	0.055679 	4939 	0.054493
36.03 	0.050577 	4943 	0.049866
36.07 	0.056692 	4939 	0.055506
36.11 	0.054981 	4929 	0.054149
36.15 	0.058514 	4939 	0.056853
36.19 	0.056883 	4940 	0.055460
36.23 	0.052685 	4935 	0.051854
36.27 	0.058883 	4925 	0.057912
36.31 	0.058644 	4928 	0.057674
36.35 	0.059850 	4929 	0.059374
36.39 	0.056696 	4921 	0.055624
36.43 	0.054992 	4928 	0.054279
36.47 	0.056118 	4936 	0.055288
36.51 	0.058788 	4933 	0.057205
36.55 	0.056221 	4927 	0.055131
36.59 	0.063981 	4939 	0.062795
36.63 	0.054553 	4931 	0.053602
36.67 	0.057404 	4930 	0.056315
36.71 	0.053038 	4921 	0.052443
36.75 	0.058455 	4944 	0.057507
36.79 	0.058931 	4921 	0.057860
36.83 	0.056155 	4915 	0.055678
36.87 	0.056634 	4944 	0.055568
36.91 	0.056871 	4941 	0.055567
36.95 	0.054328 	4933 	0.053616
36.99 	0.057143 	4935 	0.056431
37.03 	0.049959 	4924 	0.049464
37.07 	0.058359 	4935 	0.057409
37.11 	0.054711 	4935 	0.054118
37.15 	0.049094 	4909 	0.048139
37.19 	0.052792 	4925 	0.052554
37.23 	0.054087 	4918 	0.052896
37.27 	0.058848 	4894 	0.057651
37.31 	0.056738 	4935 	0.055907
37.35 	0.060348 	4938 	0.059162
37.39 	0.061042 	4931 	0.060567
37.43 	0.064071 	4932 	0.062884
37.47 	0.055792 	4929 	0.055317
37.51 	0.057369 	4933 	0.056419
37.55 	0.058012 	4930 	0.056824
37.59 	0.056765 	4915 	0.056050
37.63 	0.056109 	4919 	0.055633
37.67 	0.054038 	4904 	0.053440
37.71 	0.057212 	4929 	0.056381
37.75 	0.060729 	4940 	0.059662
37.79 	0.053550 	4930 	0.052956
37.83 	0.052236 	4920 	0.051640
37.87 	0.059526 	4939 	0.058459
37.91 	0.054361 	4930 	0.052579
37.95 	0.057712 	4921 	0.056521
37.99 	0.050489 	4912 	0.049773
38.03 	0.054594 	4909 	0.053997
38.07 	0.057242 	4909 	0.056764
38.11 	0.054711 	4935 	0.053999
38.15 	0.053884 	4918 	0.053149
38.19 	0.064097 	4930 	0.063266
38.23 	0.063994 	4938 	0.062432
38.27 	0.065517 	4930 	0.063616
38.31 	0.068196 	4927 	0.066630
38.35 	0.070617 	4928 	0.068953
38.39 	0.070686 	4909 	0.069255
38.43 	0.069162 	4916 	0.067494
38.47 	0.086203 	4907 	0.084055
38.51 	0.079481 	4932 	0.077581
38.55 	0.078606 	4936 	0.077044
38.59 	0.080829 	4924 	0.079282
38.63 	0.080829 	4924 	0.079163
38.67 	0.073121 	4937 	0.071698
38.71 	0.069659 	4924 	0.069044
38.75 	0.069616 	4927 	0.068408
38.79 	0.062829 	4934 	0.061523
38.83 	0.057735 	4919 	0.056902
38.87 	0.060476 	4911 	0.059522
38.91 	0.056700 	4903 	0.055725
38.95 	0.052054 	4918 	0.051220
38.99 	0.052258 	4937 	0.052021
39.03 	0.048237 	4934 	0.047524
39.07 	0.048538 	4924 	0.048300
39.11 	0.048266 	4931 	0.047791
39.15 	0.050865 	4915 	0.050150
39.19 	0.042709 	4917 	0.041994
39.23 	0.047716 	4925 	0.047002
39.27 	0.050102 	4910 	0.049744
39.31 	0.044021 	4884 	0.043661
39.35 	0.046201 	4935 	0.045963
39.39 	0.046257 	4929 	0.045781
39.43 	0.045814 	4933 	0.045339
39.47 	0.054641 	4923 	0.053809
39.51 	0.046101 	4924 	0.045625
39.55 	0.049604 	4919 	0.048889
39.59 	0.046010 	4912 	0.045294
39.63 	0.048557 	4922 	0.047843
39.67 	0.044169 	4913 	0.042957
39.71 	0.047191 	4895 	0.046353
39.75 	0.044846 	4928 	0.044251
39.79 	0.046285 	4926 	0.046285
39.83 	0.044183 	4934 	0.043590
39.87 	0.041015 	4925 	0.040421
39.91 	0.041650 	4922 	0.041174
39.95 	0.047813 	4915 	0.046979
39.99 	0.041971 	4932 	0.041338
40.03 	0.038758 	4928 	0.038520
40.07 	0.046516 	4923 	0.045921
40.11 	0.049227 	4916 	0.048870
40.15 	0.041726 	4913 	0.040891
40.19 	0.043619 	4929 	0.043025
40.23 	0.044607 	4932 	0.044132
40.27 	0.037472 	4937 	0.036998
40.31 	0.041304 	4939 	0.040711
40.35 	0.044928 	4919 	0.044690
40.39 	0.041574 	4931 	0.040960
40.43 	0.044494 	4922 	0.044256
40.47 	0.044327 	4918 	0.043851
40.51 	0.043072 	4922 	0.042477
40.55 	0.042380 	4908 	0.042022
40.59 	0.040308 	4937 	0.039932
40.63 	0.040771 	4930 	0.040296
40.67 	0.041363 	4932 	0.040531
40.71 	0.043593 	4932 	0.043118
40.75 	0.041371 	4931 	0.041133
40.79 	0.046710 	4924 	0.045520
40.83 	0.036932 	4928 	0.036100
40.87 	0.045860 	4928 	0.045266
40.91 	0.044485 	4923 	0.043890
40.95 	0.040301 	4913 	0.040301
40.99 	0.042039 	4924 	0.041920
41.03 	0.042202 	4905 	0.041844
41.07 	0.046045 	4930 	0.045688
41.11 	0.040932 	4935 	0.040576
41.15 	0.043513 	4941 	0.043158
41.19 	0.044219 	4930 	0.043506
41.23 	0.042519 	4939 	0.041807
41.27 	0.042588 	4931 	0.042113
41.31 	0.038719 	4933 	0.038481
41.35 	0.040300 	4938 	0.039707
41.39 	0.038516 	4933 	0.037566
41.43 	0.039562 	4929 	0.038968
41.47 	0.037759 	4926 	0.037521
41.51 	0.043117 	4940 	0.042880
41.55 	0.039108 	4935 	0.038871
41.59 	0.041760 	4933 	0.041403
41.63 	0.040705 	4938 	0.040092
41.67 	0.039069 	4940 	0.038595
41.71 	0.044994 	4934 	0.044163
41.75 	0.043619 	4929 	0.042906
41.79 	0.040858 	4944 	0.040147
41.83 	0.037338 	4928 	0.036843
41.87 	0.045593 	4935 	0.045118
41.91 	0.036062 	4936 	0.035706
41.95 	0.038937 	4931 	0.038225
41.99 	0.041182 	4905 	0.040944
42.03 	0.039684 	4939 	0.038617
42.07 	0.039295 	4937 	0.038821
42.11 	0.034580 	4945 	0.034462
42.15 	0.039895 	4938 	0.039420
42.19 	0.038712 	4908 	0.037877
42.23 	0.040270 	4892 	0.040030
42.27 	0.039188 	4874 	0.038707
42.31 	0.036663 	4855 	0.036161
42.35 	0.039066 	4838 	0.038702
42.39 	0.038718 	4804 	0.037986
42.43 	0.040067 	4792 	0.039578
42.47 	0.040084 	4765 	0.039715
42.51 	0.038583 	4743 	0.038460
42.55 	0.037596 	4708 	0.037471
42.59 	0.032354 	4729 	0.032106
42.63 	0.036313 	4709 	0.035547
42.67 	0.039069 	4684 	0.038819
42.71 	0.036886 	4663 	0.036635
42.75 	0.033355 	4617 	0.032847
42.79 	0.039939 	4582 	0.039683
42.83 	0.040564 	4536 	0.040177
42.87 	0.038675 	4499 	0.038154
42.91 	0.037926 	4456 	0.036875
42.95 	0.036005 	4416 	0.035475
42.99 	0.034208 	4385 	0.034074
43.03 	0.038080 	4333 	0.037269
43.07 	0.039106 	4296 	0.038697
43.11 	0.038778 	4255 	0.038503
43.15 	0.043272 	4206 	0.043132
43.19 	0.044826 	4194 	0.044267
43.23 	0.039239 	4154 	0.039098
43.27 	0.037515 	4105 	0.037230
43.31 	0.036283 	4079 	0.035853
43.35 	0.039683 	4032 	0.039683
43.39 	0.034983 	4002 	0.034690
43.43 	0.036111 	3960 	0.035371
43.47 	0.034430 	3921 	0.034281
43.51 	0.046944 	3877 	0.046792
43.55 	0.038124 	2964 	0.037531
43.59 	0.036655 	1746 	0.036655
43.63 	0.028971 	1001 	0.028971
43.67 	0.033865 	502 	0.033865
43.71 	0.050209 	239 	0.047758
43.75 	0.000000 	16 	0.000000

File: 25SC_s1_0026.001.dat
#F C:\frames\spec\25SC_s1_0026.001
#C title =s:26 frm:1 25SC_s1
#C wavelength =0.15406

#S 1  fr_average C:\frames\spec\25SC_s1_0026.001 C:\win32app\speccom\mask.axs chi 0 180 0 360 0.02
#C 2 theta =0.000000 to 180 deg
#C   q   =0.000000 to 81.568 nm^-1
#C  chi  =0.000000 to 360 deg
#C collumns:
#C  1 position (2theta or chi in degrees)
#C  2 average intensity (sum of all counts in the region divided with number of pixels)
#C  3 Number of pixels in region)
#C  4 error (sum of sqrt(intensity) for all pixels divided by number)
#N 4
#L TTh  Int  N_pix  Err
32.99 	0.032787 	61 	0.032787
33.03 	0.063983 	1391 	0.063140
33.07 	0.072683 	2050 	0.070968
33.11 	0.053509 	2579 	0.052601
33.15 	0.057019 	2999 	0.056042
33.19 	0.053860 	3342 	0.052808
33.23 	0.057054 	3523 	0.055890
33.27 	0.062534 	3630 	0.061082
33.31 	0.061749 	3660 	0.060628
33.35 	0.061722 	3694 	0.060612
33.39 	0.055779 	3729 	0.055465
33.43 	0.059825 	3761 	0.059046
33.47 	0.061875 	3798 	0.060178
33.51 	0.065531 	3815 	0.064149
33.55 	0.058028 	3843 	0.056961
33.59 	0.058247 	3880 	0.056738
33.63 	0.063537 	3919 	0.062042
33.67 	0.057410 	3954 	0.055929
33.71 	0.061887 	3975 	0.060708
33.75 	0.059015 	3999 	0.058136
33.79 	0.057164 	4041 	0.056149
33.83 	0.056790 	4050 	0.055465
33.87 	0.062758 	4111 	0.062046
33.91 	0.055435 	4149 	0.054023
33.95 	0.060273 	4181 	0.059432
33.99 	0.060238 	4200 	0.058983
34.03 	0.056079 	4244 	0.055665
34.07 	0.058575 	4268 	0.057203
34.11 	0.062762 	4302 	0.060969
34.15 	0.050797 	4331 	0.050256
34.19 	0.061669 	4362 	0.060192
34.23 	0.055543 	4393 	0.055010
34.27 	0.055857 	4422 	0.055460
34.31 	0.061014 	4458 	0.060094
34.35 	0.051517 	4484 	0.050711
34.39 	0.056641 	4502 	0.056121
34.43 	0.054417 	4539 	0.053901
34.47 	0.057491 	4592 	0.056705
34.51 	0.057317 	4606 	0.056426
34.55 	0.052121 	4643 	0.050986
34.59 	0.060535 	4675 	0.059407
34.63 	0.057749 	4710 	0.056506
34.67 	0.058005 	4741 	0.056625
34.71 	0.050147 	4766 	0.049778
34.75 	0.053037 	4808 	0.052062
34.79 	0.059080 	4824 	0.057622
34.83 	0.056767 	4862 	0.055783
34.87 	0.061627 	4868 	0.060424
34.91 	0.062679 	4882 	0.061599
34.95 	0.053579 	4890 	0.052241
34.99 	0.056565 	4897 	0.055489
35.03 	0.060490 	4943 	0.059186
35.07 	0.056883 	4940 	0.055815
35.11 	0.059632 	4947 	0.059040
35.15 	0.063399 	4937 	0.061975
35.19 	0.059085 	4942 	0.058137
35.23 	0.053589 	4945 	0.052523
35.27 	0.052344 	4948 	0.051516
35.31 	0.056355 	4933 	0.055524
35.35 	0.053824 	4942 	0.053350
35.39 	0.051163 	4945 	0.050669
35.43 	0.055342 	4933 	0.054392
35.47 	0.060637 	4931 	0.059568
35.51 	0.053999 	4926 	0.053048
35.55 	0.057836 	4945 	0.057125
35.59 	0.054601 	4945 	0.053890
35.63 	0.056039 	4943 	0.055209
35.67 	0.057669 	4942 	0.056839
35.71 	0.051246 	4937 	0.050652
35.75 	0.060840 	4931 	0.060246
35.79 	0.055150 	4932 	0.054556
35.83 	0.055398 	4946 	0.054451
35.87 	0.058095 	4923 	0.056786
35.91 	0.053379 	4927 	0.052428
35.95 	0.053691 	4917 	0.052857
35.99 	0.053047 	4939 	0.052336
36.03 	0.055230 	4943 	0.054400
36.07 	0.062158 	4939 	0.061328
36.11 	0.060256 	4929 	0.059186
36.15 	0.053857 	4939 	0.052671
36.19 	0.058097 	4940 	0.056556
36.23 	0.057548 	4935 	0.057192
36.27 	0.061929 	4925 	0.060858
36.31 	0.060674 	4928 	0.060198
36.35 	0.061067 	4929 	0.059641
36.39 	0.053851 	4921 	0.052522
36.43 	0.054789 	4928 	0.053719
36.47 	0.055308 	4936 	0.054339
36.51 	0.053720 	4933 	0.052889
36.55 	0.055815 	4927 	0.054983
36.59 	0.053250 	4939 	0.052894
36.63 	0.058812 	4931 	0.057624
36.67 	0.054970 	4930 	0.053900
36.71 	0.057712 	4921 	0.056879
36.75 	0.057039 	4944 	0.056091
36.79 	0.051006 	4921 	0.049935
36.83 	0.056765 	4915 	0.055812
36.87 	0.060882 	4944 	0.059796
36.91 	0.049585 	4941 	0.048755
36.95 	0.060409 	4933 	0.058985
36.99 	0.054103 	4935 	0.053747
37.03 	0.052803 	4924 	0.051970
37.07 	0.055319 	4935 	0.054726
37.11 	0.050659 	4935 	0.050065
37.15 	0.057446 	4909 	0.056133
37.19 	0.056244 	4925 	0.055035
37.23 	0.051647 	4918 	0.050932
37.27 	0.055578 	4894 	0.054022
37.31 	0.053495 	4935 	0.052269
37.35 	0.058931 	4938 	0.058456
37.39 	0.058812 	4931 	0.057742
37.43 	0.057989 	4932 	0.056663
37.47 	0.054778 	4929 	0.053708
37.51 	0.058990 	4933 	0.057565
37.55 	0.052941 	4930 	0.052228
37.59 	0.054323 	4915 	0.053350
37.63 	0.049197 	4919 	0.047867
37.67 	0.057912 	4904 	0.056937
37.71 	0.053561 	4929 	0.052729
37.75 	0.054656 	4940 	0.054063
37.79 	0.052941 	4930 	0.052585
37.83 	0.059350 	4920 	0.058635
37.87 	0.055274 	4939 	0.054444
37.91 	0.055375 	4930 	0.054662
37.95 	0.053648 	4921 	0.052814
37.99 	0.048860 	4912 	0.048025
38.03 	0.055205 	4909 	0.054369
38.07 	0.056834 	4909 	0.056357
38.11 	0.064843 	4935 	0.063775
38.15 	0.057137 	4918 	0.056065
38.19 	0.061055 	4930 	0.060104
38.23 	0.052653 	4938 	0.051822
38.27 	0.054158 	4930 	0.053326
38.31 	0.067790 	4927 	0.066244
38.35 	0.069399 	4928 	0.067973
38.39 	0.067223 	4909 	0.066269
38.43 	0.070179 	4916 	0.069702
38.47 	0.074791 	4907 	0.072284
38.51 	0.072790 	4932 	0.070652
38.55 	0.069287 	4936 	0.068219
38.59 	0.073111 	4924 	0.072041
38.63 	0.075345 	4924 	0.073918
38.67 	0.064006 	4937 	0.063295
38.71 	0.068440 	4924 	0.066537
38.75 	0.059265 	4927 	0.058076
38.79 	0.063437 	4934 	0.062250
38.83 	0.060378 	4919 	0.059068
38.87 	0.059662 	4911 	0.058350
38.91 	0.050989 	4903 	0.050033
38.95 	0.055307 	4918 	0.054235
38.99 	0.048815 	4937 	0.048103
39.03 	0.054722 	4934 	0.054247
39.07 	0.054427 	4924 	0.053832
39.11 	0.046035 	4931 	0.045323
39.15 	0.051882 	4915 	0.050929
39.19 	0.046573 	4917 	0.046216
39.23 	0.051980 	4925 	0.050909
39.27 	0.050306 	4910 	0.049828
39.31 	0.042588 	4884 	0.042208
39.35 	0.051672 	4935 	0.050603
39.39 	0.044228 	4929 	0.043872
39.43 	0.050274 	4933 	0.049067
39.47 	0.038594 	4923 	0.038356
39.51 	0.043258 	4924 	0.042544
39.55 	0.045944 	4919 	0.045111
39.59 	0.045195 	4912 	0.044838
39.63 	0.044088 	4922 	0.044088
39.67 	0.045797 	4913 	0.044943
39.71 	0.043922 	4895 	0.043204
39.75 	0.042614 	4928 	0.042019
39.79 	0.044458 	4926 	0.043744
39.83 	0.035063 	4934 	0.034707
39.87 	0.046091 	4925 	0.045616
39.91 	0.041650 	4922 	0.041174
39.95 	0.044151 	4915 	0.043416
39.99 	0.041363 	4932 	0.040769
40.03 	0.044643 	4928 	0.044286
40.07 	0.043469 	4923 	0.043231
40.11 	0.043735 	4916 	0.043139
40.15 	0.042337 	4913 	0.040986
40.19 	0.042199 	4929 	0.041724
40.23 	0.043390 	4932 	0.042796
40.27 	0.039093 	4937 	0.038618
40.31 	0.039279 	4939 	0.038330
40.35 	0.044318 	4919 	0.044199
40.39 	0.044007 	4931 	0.043156
40.43 	0.042666 	4922 	0.042071
40.47 	0.042090 	4918 	0.041495
40.51 	0.046932 	4922 	0.046456
40.55 	0.044825 	4908 	0.044347
40.59 	0.042131 	4937 	0.041894
40.63 	0.042799 	4930 	0.042086
40.67 	0.042782 	4932 	0.042426
40.71 	0.045215 	4932 	0.044740
40.75 	0.043399 	4931 	0.042805
40.79 	0.039805 	4924 	0.039210
40.83 	0.047484 	4928 	0.046513
40.87 	0.039773 	4928 	0.038584
40.91 	0.040829 	4923 	0.040353
40.95 	0.039894 	4913 	0.039656
40.99 	0.041024 	4924 	0.040290
41.03 	0.035678 	4905 	0.035320
41.07 	0.038742 	4930 	0.038505
41.11 	0.040932 	4935 	0.040339
41.15 	0.035620 	4941 	0.035146
41.19 	0.039554 	4930 	0.039435
41.23 	0.043936 	4939 	0.043343
41.27 	0.041168 	4931 	0.040455
41.31 	0.043989 	4933 	0.043158
41.35 	0.037465 	4938 	0.036990
41.39 	0.036894 	4933 	0.036538
41.43 	0.041388 	4929 	0.041031
41.47 	0.034917 	4926 	0.034084
41.51 	0.043927 	4940 	0.043334
41.55 	0.041743 	4935 	0.041505
41.59 	0.037097 	4933 	0.036860
41.63 	0.045160 	4938 	0.044923
41.67 	0.039271 	4940 	0.038797
41.71 	0.037495 	4934 	0.036901
41.75 	0.038344 	4929 	0.037869
41.79 	0.043083 	4944 	0.042609
41.83 	0.043628 	4928 	0.042915
41.87 	0.042756 	4935 	0.042518
41.91 	0.043963 	4936 	0.043369
41.95 	0.034070 	4931 	0.033714
41.99 	0.040367 	4905 	0.039292
42.03 	0.039077 	4939 	0.038721
42.07 	0.037472 	4937 	0.037353
42.11 	0.034985 	4945 	0.034985
42.15 	0.041920 	4938 	0.041445
42.19 	0.038916 	4908 	0.038319
42.23 	0.030867 	4892 	0.030627
42.27 	0.037546 	4874 	0.037306
42.31 	0.038105 	4855 	0.037622
42.35 	0.044233 	4838 	0.043870
42.39 	0.042256 	4804 	0.041891
42.43 	0.037563 	4792 	0.037176
42.47 	0.044491 	4765 	0.043385
42.51 	0.036475 	4743 	0.036228
42.55 	0.041419 	4708 	0.041046
42.59 	0.040178 	4729 	0.039930
42.63 	0.042047 	4709 	0.041550
42.67 	0.037788 	4684 	0.037663
42.71 	0.035599 	4663 	0.035348
42.75 	0.043318 	4617 	0.042938
42.79 	0.032519 	4582 	0.032135
42.83 	0.038801 	4536 	0.038284
42.87 	0.035563 	4499 	0.035303
42.91 	0.039048 	4456 	0.038917
42.95 	0.034194 	4416 	0.033929
42.99 	0.037628 	4385 	0.037094
43.03 	0.038772 	4333 	0.038231
43.07 	0.034916 	4296 	0.034643
43.11 	0.037838 	4255 	0.037425
43.15 	0.041132 	4206 	0.040714
43.19 	0.036958 	4194 	0.036818
43.23 	0.040684 	4154 	0.040120
43.27 	0.038977 	4105 	0.038549
43.31 	0.032116 	4079 	0.031828
43.35 	0.034474 	4032 	0.034474
43.39 	0.034733 	4002 	0.034147
43.43 	0.031061 	3960 	0.030469
43.47 	0.041826 	3921 	0.041378
43.51 	0.042301 	3877 	0.041847
43.55 	0.037112 	2964 	0.036717
43.59 	0.036655 	1746 	0.035984
43.63 	0.026973 	1001 	0.026388
43.67 	0.031873 	502 	0.030706
43.71 	0.046025 	239 	0.046025
43.75 	0.000000 	16 	0.000000