Folder: Bessy-II-KMC-II-insitu-sin2psi/Example_Data (part 3)

File: 25SC_s1_0002.003.dat
#F C:\frames\spec\25SC_s1_0002.003
#C title =s:2 frm:3 25SC_s1
#C wavelength =0.15406

#S 1  fr_average C:\frames\spec\25SC_s1_0002.003 C:\win32app\speccom\mask.axs chi 0 180 0 360 0.02
#C 2 theta =0.000000 to 180 deg
#C   q   =0.000000 to 81.568 nm^-1
#C  chi  =0.000000 to 360 deg
#C collumns:
#C  1 position (2theta or chi in degrees)
#C  2 average intensity (sum of all counts in the region divided with number of pixels)
#C  3 Number of pixels in region)
#C  4 error (sum of sqrt(intensity) for all pixels divided by number)
#N 4
#L TTh  Int  N_pix  Err
32.99 	0.098361 	61 	0.098361
33.03 	0.071891 	1391 	0.070206
33.07 	0.075610 	2050 	0.074467
33.11 	0.070958 	2579 	0.068459
33.15 	0.068023 	2999 	0.066265
33.19 	0.078097 	3342 	0.076870
33.23 	0.068691 	3523 	0.066862
33.27 	0.072727 	3630 	0.070952
33.31 	0.069672 	3660 	0.068392
33.35 	0.075257 	3694 	0.074121
33.39 	0.078842 	3729 	0.076931
33.43 	0.070726 	3761 	0.069947
33.47 	0.072143 	3798 	0.070292
33.51 	0.073394 	3815 	0.071552
33.55 	0.071819 	3843 	0.071209
33.59 	0.064433 	3880 	0.063074
33.63 	0.073743 	3919 	0.071477
33.67 	0.066515 	3954 	0.064885
33.71 	0.074465 	3975 	0.072992
33.75 	0.066267 	3999 	0.064802
33.79 	0.068052 	4041 	0.066289
33.83 	0.073086 	4050 	0.071929
33.87 	0.075407 	4111 	0.073840
33.91 	0.076645 	4149 	0.073939
33.95 	0.072232 	4181 	0.071111
33.99 	0.063571 	4200 	0.062595
34.03 	0.063384 	4244 	0.062279
34.07 	0.067948 	4268 	0.067124
34.11 	0.064621 	4302 	0.063668
34.15 	0.061649 	4331 	0.060837
34.19 	0.071527 	4362 	0.069378
34.23 	0.071933 	4393 	0.070466
34.27 	0.067390 	4422 	0.066198
34.31 	0.070884 	4458 	0.069964
34.35 	0.073372 	4484 	0.072327
34.39 	0.074856 	4502 	0.073294
34.43 	0.073364 	4539 	0.072461
34.47 	0.067726 	4592 	0.066323
34.51 	0.070994 	4606 	0.069468
34.55 	0.072152 	4643 	0.070890
34.59 	0.071872 	4675 	0.070849
34.63 	0.072824 	4710 	0.071331
34.67 	0.072559 	4741 	0.070829
34.71 	0.067352 	4766 	0.065754
34.75 	0.064892 	4808 	0.064039
34.79 	0.070481 	4824 	0.069509
34.83 	0.068696 	4862 	0.067250
34.87 	0.065325 	4868 	0.064242
34.91 	0.064728 	4882 	0.063168
34.95 	0.074233 	4890 	0.072556
34.99 	0.070451 	4897 	0.068657
35.03 	0.069391 	4943 	0.067732
35.07 	0.071255 	4940 	0.070306
35.11 	0.072974 	4947 	0.070941
35.15 	0.075349 	4937 	0.074044
35.19 	0.072440 	4942 	0.070781
35.23 	0.066532 	4945 	0.065110
35.27 	0.067300 	4948 	0.066353
35.31 	0.073789 	4933 	0.072344
35.35 	0.072845 	4942 	0.071541
35.39 	0.071790 	4945 	0.069737
35.43 	0.074397 	4933 	0.072853
35.47 	0.066721 	4931 	0.065038
35.51 	0.075924 	4926 	0.074001
35.55 	0.070981 	4945 	0.068612
35.59 	0.071992 	4945 	0.070314
35.63 	0.071212 	4943 	0.070027
35.67 	0.073250 	4942 	0.071709
35.71 	0.064817 	4937 	0.063492
35.75 	0.068546 	4931 	0.067596
35.79 	0.066099 	4932 	0.064773
35.83 	0.071775 	4946 	0.070117
35.87 	0.070689 	4923 	0.069380
35.91 	0.066369 	4927 	0.064823
35.95 	0.074436 	4917 	0.072887
35.99 	0.072889 	4939 	0.071209
36.03 	0.072426 	4943 	0.069937
36.07 	0.067423 	4939 	0.066237
36.11 	0.071820 	4929 	0.070037
36.15 	0.073294 	4939 	0.072108
36.19 	0.072470 	4940 	0.071402
36.23 	0.075988 	4935 	0.073357
36.27 	0.069645 	4925 	0.067861
36.31 	0.073052 	4928 	0.071388
36.35 	0.069182 	4929 	0.067637
36.39 	0.076814 	4921 	0.076099
36.43 	0.071226 	4928 	0.069680
36.47 	0.073339 	4936 	0.071915
36.51 	0.072775 	4933 	0.071093
36.55 	0.072255 	4927 	0.070353
36.59 	0.069042 	4939 	0.067856
36.63 	0.061854 	4931 	0.060903
36.67 	0.067343 	4930 	0.065560
36.71 	0.070717 	4921 	0.069408
36.75 	0.076659 	4944 	0.074407
36.79 	0.072140 	4921 	0.070830
36.83 	0.074466 	4915 	0.072797
36.87 	0.072209 	4944 	0.070530
36.91 	0.079134 	4941 	0.077474
36.95 	0.072978 	4933 	0.071296
36.99 	0.074772 	4935 	0.073091
37.03 	0.070065 	4924 	0.068637
37.07 	0.073961 	4935 	0.071706
37.11 	0.071530 	4935 	0.070224
37.15 	0.063760 	4909 	0.062309
37.19 	0.076548 	4925 	0.075240
37.23 	0.069540 	4918 	0.068449
37.27 	0.070290 	4894 	0.068734
37.31 	0.068288 	4935 	0.066745
37.35 	0.068854 	4938 	0.067905
37.39 	0.067126 	4931 	0.065938
37.43 	0.062247 	4932 	0.061296
37.47 	0.069182 	4929 	0.067737
37.51 	0.064464 	4933 	0.062881
37.55 	0.065923 	4930 	0.064359
37.59 	0.072228 	4915 	0.069805
37.63 	0.063834 	4919 	0.062524
37.67 	0.062398 	4904 	0.062159
37.71 	0.065733 	4929 	0.064545
37.75 	0.072267 	4940 	0.070706
37.79 	0.073834 	4930 	0.072289
37.83 	0.069512 	4920 	0.068203
37.87 	0.071067 	4939 	0.070217
37.91 	0.062272 	4930 	0.061559
37.95 	0.074172 	4921 	0.072962
37.99 	0.062704 	4912 	0.061849
38.03 	0.068038 	4909 	0.066964
38.07 	0.067223 	4909 	0.065533
38.11 	0.073354 	4935 	0.071810
38.15 	0.064864 	4918 	0.063434
38.19 	0.067546 	4930 	0.066357
38.23 	0.075537 	4938 	0.074350
38.27 	0.074239 	4930 	0.072576
38.31 	0.073473 	4927 	0.071908
38.35 	0.082995 	4928 	0.081806
38.39 	0.080261 	4909 	0.078590
38.43 	0.091131 	4916 	0.088510
38.47 	0.085388 	4907 	0.083598
38.51 	0.090227 	4932 	0.088327
38.55 	0.088128 	4936 	0.085873
38.59 	0.085093 	4924 	0.082833
38.63 	0.076970 	4924 	0.074452
38.67 	0.078590 	4937 	0.076454
38.71 	0.073924 	4924 	0.072853
38.75 	0.069008 	4927 	0.067700
38.79 	0.065261 	4934 	0.063105
38.83 	0.065460 	4919 	0.063774
38.87 	0.057422 	4911 	0.056448
38.91 	0.059759 	4903 	0.058565
38.95 	0.063034 	4918 	0.061228
38.99 	0.058943 	4937 	0.057756
39.03 	0.056141 	4934 	0.055310
39.07 	0.057067 	4924 	0.055977
39.11 	0.058000 	4931 	0.057050
39.15 	0.057986 	4915 	0.057151
39.19 	0.058776 	4917 	0.057346
39.23 	0.064162 	4925 	0.062696
39.27 	0.056212 	4910 	0.054899
39.31 	0.053645 	4884 	0.053045
39.35 	0.052077 	4935 	0.051246
39.39 	0.056401 	4929 	0.055331
39.43 	0.049463 	4933 	0.048988
39.47 	0.051188 	4923 	0.050355
39.51 	0.056255 	4924 	0.055641
39.55 	0.056109 	4919 	0.054680
39.59 	0.057207 	4912 	0.056253
39.63 	0.061764 	4922 	0.060811
39.67 	0.058620 	4913 	0.057666
39.71 	0.059448 	4895 	0.058132
39.75 	0.057630 	4928 	0.056778
39.79 	0.051766 	4926 	0.051290
39.83 	0.056952 	4934 	0.056239
39.87 	0.056244 	4925 	0.055411
39.91 	0.053840 	4922 	0.053483
39.95 	0.059817 	4915 	0.058586
39.99 	0.054745 	4932 	0.053300
40.03 	0.052151 	4928 	0.051200
40.07 	0.053016 	4923 	0.052422
40.11 	0.048210 	4916 	0.047595
40.15 	0.054346 	4913 	0.053153
40.19 	0.053763 	4929 	0.052575
40.23 	0.055556 	4932 	0.054962
40.27 	0.051246 	4937 	0.050771
40.31 	0.053250 	4939 	0.052657
40.35 	0.051840 	4919 	0.051363
40.39 	0.051714 	4931 	0.050763
40.43 	0.057700 	4922 	0.057105
40.47 	0.053477 	4918 	0.052524
40.51 	0.045916 	4922 	0.045559
40.55 	0.047881 	4908 	0.047642
40.59 	0.046587 	4937 	0.045994
40.63 	0.052738 	4930 	0.051907
40.67 	0.049878 	4932 	0.048809
40.71 	0.053933 	4932 	0.052983
40.75 	0.053742 	4931 	0.053385
40.79 	0.050366 	4924 	0.049414
40.83 	0.046875 	4928 	0.046043
40.87 	0.051339 	4928 	0.049913
40.91 	0.057485 	4923 	0.056276
40.95 	0.050682 	4913 	0.050086
40.99 	0.054630 	4924 	0.053798
41.03 	0.054027 	4905 	0.053668
41.07 	0.051116 	4930 	0.050027
41.11 	0.049037 	4935 	0.047712
41.15 	0.050192 	4941 	0.049481
41.19 	0.053753 	4930 	0.052802
41.23 	0.051427 	4939 	0.050479
41.27 	0.054756 	4931 	0.053924
41.31 	0.049868 	4933 	0.049631
41.35 	0.050020 	4938 	0.049071
41.39 	0.044395 	4933 	0.043920
41.43 	0.049097 	4929 	0.048265
41.47 	0.050345 	4926 	0.049394
41.51 	0.048583 	4940 	0.047496
41.55 	0.046201 	4935 	0.045845
41.59 	0.052301 	4933 	0.051707
41.63 	0.054070 	4938 	0.052884
41.67 	0.051822 	4940 	0.051110
41.71 	0.051277 	4934 	0.050565
41.75 	0.053763 	4929 	0.052456
41.79 	0.043083 	4944 	0.042253
41.83 	0.048093 	4928 	0.047023
41.87 	0.047822 	4935 	0.047228
41.91 	0.055105 	4936 	0.054156
41.95 	0.051916 	4931 	0.051441
41.99 	0.049745 	4905 	0.049267
42.03 	0.051225 	4939 	0.050276
42.07 	0.051043 	4937 	0.050331
42.11 	0.047321 	4945 	0.046254
42.15 	0.051438 	4938 	0.050845
42.19 	0.046251 	4908 	0.045654
42.23 	0.049264 	4892 	0.047588
42.27 	0.049241 	4874 	0.048279
42.31 	0.048816 	4855 	0.048454
42.35 	0.049194 	4838 	0.048831
42.39 	0.046420 	4804 	0.045200
42.43 	0.052379 	4792 	0.052134
42.47 	0.044911 	4765 	0.044050
42.51 	0.047649 	4743 	0.046517
42.55 	0.048853 	4708 	0.048480
42.59 	0.050539 	4729 	0.049796
42.63 	0.049480 	4709 	0.048733
42.67 	0.045474 	4684 	0.044724
42.71 	0.049324 	4663 	0.048948
42.75 	0.048083 	4617 	0.047829
42.79 	0.045613 	4582 	0.045209
42.83 	0.047178 	4536 	0.046511
42.87 	0.040009 	4499 	0.039488
42.91 	0.050494 	4456 	0.050099
42.95 	0.046196 	4416 	0.045400
42.99 	0.048803 	4385 	0.047979
43.03 	0.045003 	4333 	0.043922
43.07 	0.044460 	4296 	0.044324
43.11 	0.054289 	4255 	0.053325
43.15 	0.045411 	4206 	0.044715
43.19 	0.047687 	4194 	0.046547
43.23 	0.050794 	4154 	0.050371
43.27 	0.044580 	4105 	0.044152
43.31 	0.049277 	4079 	0.048702
43.35 	0.047123 	4032 	0.046687
43.39 	0.043978 	4002 	0.043393
43.43 	0.044949 	3960 	0.044802
43.47 	0.042846 	3921 	0.041950
43.51 	0.046170 	3877 	0.045565
43.55 	0.050270 	2964 	0.049875
43.59 	0.037801 	1746 	0.037465
43.63 	0.046953 	1001 	0.046368
43.67 	0.031873 	502 	0.031873
43.71 	0.054393 	239 	0.051942
43.75 	0.000000 	16 	0.000000

File: 25SC_s1_0002.004.dat
#F C:\frames\spec\25SC_s1_0002.004
#C title =s:2 frm:4 25SC_s1
#C wavelength =0.15406

#S 1  fr_average C:\frames\spec\25SC_s1_0002.004 C:\win32app\speccom\mask.axs chi 0 180 0 360 0.02
#C 2 theta =0.000000 to 180 deg
#C   q   =0.000000 to 81.568 nm^-1
#C  chi  =0.000000 to 360 deg
#C collumns:
#C  1 position (2theta or chi in degrees)
#C  2 average intensity (sum of all counts in the region divided with number of pixels)
#C  3 Number of pixels in region)
#C  4 error (sum of sqrt(intensity) for all pixels divided by number)
#N 4
#L TTh  Int  N_pix  Err
32.99 	0.098361 	61 	0.098361
33.03 	0.080518 	1391 	0.079254
33.07 	0.077073 	2050 	0.074501
33.11 	0.068631 	2579 	0.067950
33.15 	0.079693 	2999 	0.078521
33.19 	0.065829 	3342 	0.064952
33.23 	0.069827 	3523 	0.068330
33.27 	0.064738 	3630 	0.062963
33.31 	0.071311 	3660 	0.069711
33.35 	0.074986 	3694 	0.073401
33.39 	0.070260 	3729 	0.069003
33.43 	0.070726 	3761 	0.069947
33.47 	0.072143 	3798 	0.069675
33.51 	0.074181 	3815 	0.072159
33.55 	0.068696 	3843 	0.066867
33.59 	0.070619 	3880 	0.069713
33.63 	0.072212 	3919 	0.071166
33.67 	0.074608 	3954 	0.073571
33.71 	0.071950 	3975 	0.070894
33.75 	0.067267 	3999 	0.065948
33.79 	0.066815 	4041 	0.065052
33.83 	0.071358 	4050 	0.070490
33.87 	0.070299 	4111 	0.068993
33.91 	0.074717 	4149 	0.073164
33.95 	0.067448 	4181 	0.066047
33.99 	0.066667 	4200 	0.065690
34.03 	0.060556 	4244 	0.059153
34.07 	0.068650 	4268 	0.067278
34.11 	0.079265 	4302 	0.078040
34.15 	0.069268 	4331 	0.067217
34.19 	0.062586 	4362 	0.061512
34.23 	0.070112 	4393 	0.068223
34.27 	0.068973 	4422 	0.067649
34.31 	0.074921 	4458 	0.073060
34.35 	0.075825 	4484 	0.074105
34.39 	0.070857 	4502 	0.069036
34.43 	0.067195 	4539 	0.066163
34.47 	0.071646 	4592 	0.069988
34.51 	0.065784 	4606 	0.063876
34.55 	0.075598 	4643 	0.072907
34.59 	0.069733 	4675 	0.068104
34.63 	0.062420 	4710 	0.060037
34.67 	0.064121 	4741 	0.063113
34.71 	0.070709 	4766 	0.069357
34.75 	0.067180 	4808 	0.066205
34.79 	0.065713 	4824 	0.064256
34.83 	0.058618 	4862 	0.057172
34.87 	0.070255 	4868 	0.068811
34.91 	0.070053 	4882 	0.068853
34.95 	0.078732 	4890 	0.076935
34.99 	0.069226 	4897 	0.068149
35.03 	0.066356 	4943 	0.065053
35.07 	0.072672 	4940 	0.071585
35.11 	0.074186 	4947 	0.072292
35.15 	0.071501 	4937 	0.070077
35.19 	0.077499 	4942 	0.075365
35.23 	0.072801 	4945 	0.071261
35.27 	0.067300 	4948 	0.066116
35.31 	0.067910 	4933 	0.066723
35.35 	0.070417 	4942 	0.069232
35.39 	0.067543 	4945 	0.066477
35.43 	0.072572 	4933 	0.071365
35.47 	0.068343 	4931 	0.067749
35.51 	0.066788 	4926 	0.065837
35.55 	0.067341 	4945 	0.066393
35.59 	0.067947 	4945 	0.066269
35.63 	0.072426 	4943 	0.070530
35.67 	0.066370 	4942 	0.065422
35.71 	0.068260 	4937 	0.066461
35.75 	0.074630 	4931 	0.073561
35.79 	0.068127 	4932 	0.067414
35.83 	0.068945 	4946 	0.067523
35.87 	0.067439 	4923 	0.065654
35.91 	0.066775 	4927 	0.065229
35.95 	0.068538 	4917 	0.066751
35.99 	0.069447 	4939 	0.068024
36.03 	0.065750 	4943 	0.063853
36.07 	0.065398 	4939 	0.063737
36.11 	0.071414 	4929 	0.069988
36.15 	0.069852 	4939 	0.068548
36.19 	0.064777 	4940 	0.063453
36.23 	0.068896 	4935 	0.067570
36.27 	0.072081 	4925 	0.070991
36.31 	0.073255 	4928 	0.071947
36.35 	0.074052 	4929 	0.072130
36.39 	0.066043 	4921 	0.065329
36.43 	0.075690 	4928 	0.074006
36.47 	0.073136 	4936 	0.071949
36.51 	0.063045 	4933 	0.061976
36.55 	0.075299 	4927 	0.074110
36.59 	0.073092 	4939 	0.071906
36.63 	0.068546 	4931 	0.066645
36.67 	0.070994 	4930 	0.069687
36.71 	0.063605 	4921 	0.062891
36.75 	0.070388 	4944 	0.068967
36.79 	0.072546 	4921 	0.071356
36.83 	0.073042 	4915 	0.071592
36.87 	0.064118 	4944 	0.062459
36.91 	0.066383 	4941 	0.065198
36.95 	0.071559 	4933 	0.070253
36.99 	0.062209 	4935 	0.060666
37.03 	0.069253 	4924 	0.067944
37.07 	0.068288 	4935 	0.067200
37.11 	0.064235 	4935 	0.062554
37.15 	0.073131 	4909 	0.071918
37.19 	0.065381 	4925 	0.064191
37.23 	0.074624 	4918 	0.072123
37.27 	0.068043 	4894 	0.066586
37.31 	0.063019 	4935 	0.062426
37.35 	0.069461 	4938 	0.067919
37.39 	0.069763 	4931 	0.068912
37.43 	0.065085 	4932 	0.063897
37.47 	0.070805 	4929 	0.069023
37.51 	0.065275 	4933 	0.063593
37.55 	0.063083 	4930 	0.061895
37.59 	0.059003 	4915 	0.058169
37.63 	0.062411 	4919 	0.061458
37.67 	0.060155 	4904 	0.059080
37.71 	0.067762 	4929 	0.066574
37.75 	0.064980 	4940 	0.063794
37.79 	0.067343 	4930 	0.065442
37.83 	0.058740 	4920 	0.057649
37.87 	0.068637 	4939 	0.067451
37.91 	0.064706 	4930 	0.062805
37.95 	0.061979 	4921 	0.061384
37.99 	0.066572 	4912 	0.065618
38.03 	0.066001 	4909 	0.064430
38.07 	0.061112 	4909 	0.059800
38.11 	0.065451 	4935 	0.064007
38.15 	0.069134 	4918 	0.067923
38.19 	0.065517 	4930 	0.064567
38.23 	0.069461 	4938 	0.067900
38.27 	0.074645 	4930 	0.072982
38.31 	0.070834 	4927 	0.069645
38.35 	0.076096 	4928 	0.074669
38.39 	0.074761 	4909 	0.073090
38.43 	0.076688 	4916 	0.075309
38.47 	0.069696 	4907 	0.067886
38.51 	0.079481 	4932 	0.077561
38.55 	0.083266 	4936 	0.081011
38.59 	0.080626 	4924 	0.079317
38.63 	0.075955 	4924 	0.074150
38.67 	0.078590 	4937 	0.076929
38.71 	0.073721 	4924 	0.072531
38.75 	0.068399 	4927 	0.066615
38.79 	0.063235 	4934 	0.062047
38.83 	0.061598 	4919 	0.060407
38.87 	0.063124 	4911 	0.062766
38.91 	0.054252 	4903 	0.053536
38.95 	0.058560 	4918 	0.057727
38.99 	0.054689 	4937 	0.053859
39.03 	0.053101 	4934 	0.052507
39.07 	0.053006 	4924 	0.052173
39.11 	0.059826 	4931 	0.058756
39.15 	0.053510 	4915 	0.052755
39.19 	0.050641 	4917 	0.050283
39.23 	0.055228 	4925 	0.054277
39.27 	0.052546 	4910 	0.051830
39.31 	0.054464 	4884 	0.053744
39.35 	0.049443 	4935 	0.049087
39.39 	0.051532 	4929 	0.051056
39.43 	0.052301 	4933 	0.051351
39.47 	0.053626 	4923 	0.052317
39.51 	0.054021 	4924 	0.053426
39.55 	0.060581 	4919 	0.059510
39.59 	0.054560 	4912 	0.054202
39.63 	0.053434 	4922 	0.052958
39.67 	0.052107 	4913 	0.051014
39.71 	0.053933 	4895 	0.052357
39.75 	0.053977 	4928 	0.052907
39.79 	0.051157 	4926 	0.050444
39.83 	0.053912 	4934 	0.052131
39.87 	0.053604 	4925 	0.052534
39.91 	0.051605 	4922 	0.051129
39.95 	0.054323 	4915 	0.053370
39.99 	0.050689 	4932 	0.050096
40.03 	0.058036 	4928 	0.057204
40.07 	0.051595 	4923 	0.051119
40.11 	0.052075 	4916 	0.051002
40.15 	0.056992 	4913 	0.056257
40.19 	0.054981 	4929 	0.053911
40.23 	0.050892 	4932 	0.050061
40.27 	0.056715 	4937 	0.055884
40.31 	0.050618 	4939 	0.049313
40.35 	0.052450 	4919 	0.051239
40.39 	0.050091 	4931 	0.049378
40.43 	0.051605 	4922 	0.051129
40.47 	0.051240 	4918 	0.050387
40.51 	0.048354 	4922 	0.047521
40.55 	0.053178 	4908 	0.052582
40.59 	0.050233 	4937 	0.049284
40.63 	0.048682 	4930 	0.047969
40.67 	0.047242 	4932 	0.046411
40.71 	0.061030 	4932 	0.059842
40.75 	0.055972 	4931 	0.055141
40.79 	0.048944 	4924 	0.048349
40.83 	0.053977 	4928 	0.053383
40.87 	0.047890 	4928 	0.047533
40.91 	0.053220 	4923 	0.052625
40.95 	0.050478 	4913 	0.049763
40.99 	0.052600 	4924 	0.052243
41.03 	0.050357 	4905 	0.049282
41.07 	0.050507 	4930 	0.049537
41.11 	0.049037 	4935 	0.048187
41.15 	0.051811 	4941 	0.051574
41.19 	0.052130 	4930 	0.051536
41.23 	0.056894 	4939 	0.056182
41.27 	0.054756 	4931 	0.053924
41.31 	0.056152 	4933 	0.055084
41.35 	0.048805 	4938 	0.048093
41.39 	0.051693 	4933 	0.051099
41.43 	0.053155 	4929 	0.052204
41.47 	0.053999 	4926 	0.053048
41.51 	0.051012 	4940 	0.050182
41.55 	0.053495 	4935 	0.052783
41.59 	0.050476 	4933 	0.049269
41.63 	0.052045 	4938 	0.051334
41.67 	0.047571 	4940 	0.047334
41.71 	0.051074 	4934 	0.050481
41.75 	0.049909 	4929 	0.049671
41.79 	0.051173 	4944 	0.049988
41.83 	0.046672 	4928 	0.046553
41.87 	0.050456 	4935 	0.049862
41.91 	0.048622 	4936 	0.047436
41.95 	0.052728 	4931 	0.051995
41.99 	0.053211 	4905 	0.052494
42.03 	0.051832 	4939 	0.051358
42.07 	0.049625 	4937 	0.049032
42.11 	0.047927 	4945 	0.047216
42.15 	0.043742 	4938 	0.042793
42.19 	0.051345 	4908 	0.050629
42.23 	0.047424 	4892 	0.046706
42.27 	0.049856 	4874 	0.049015
42.31 	0.046138 	4855 	0.045655
42.35 	0.044233 	4838 	0.043729
42.39 	0.050375 	4804 	0.049033
42.43 	0.043197 	4792 	0.042586
42.47 	0.050367 	4765 	0.049507
42.51 	0.047438 	4743 	0.047315
42.55 	0.047579 	4708 	0.047205
42.59 	0.046944 	4729 	0.046325
42.63 	0.050542 	4709 	0.049546
42.67 	0.049317 	4684 	0.048441
42.71 	0.046322 	4663 	0.045820
42.75 	0.045701 	4617 	0.045447
42.79 	0.044740 	4582 	0.044101
42.83 	0.049603 	4536 	0.048957
42.87 	0.048455 	4499 	0.048065
42.91 	0.050494 	4456 	0.049573
42.95 	0.046196 	4416 	0.045532
42.99 	0.041277 	4385 	0.040342
43.03 	0.047081 	4333 	0.046540
43.07 	0.043063 	4296 	0.042927
43.11 	0.043478 	4255 	0.042790
43.15 	0.047076 	4206 	0.046379
43.19 	0.046018 	4194 	0.045157
43.23 	0.046702 	4154 	0.046420
43.27 	0.050183 	4105 	0.050040
43.31 	0.046580 	4079 	0.045862
43.35 	0.045387 	4032 	0.044660
43.39 	0.043978 	4002 	0.043246
43.43 	0.043939 	3960 	0.043028
43.47 	0.045142 	3921 	0.044693
43.51 	0.042817 	3877 	0.042363
43.55 	0.046896 	2964 	0.046303
43.59 	0.045246 	1746 	0.044575
43.63 	0.039960 	1001 	0.039960
43.67 	0.037849 	502 	0.036682
43.71 	0.058577 	239 	0.058577
43.75 	0.187500 	16 	0.187500