Folder: Bessy-II-KMC-II-insitu-sin2psi/Example_Data (part 95)

File: 25SC_s1_0038.002.dat
#F C:\frames\spec\25SC_s1_0038.002
#C title =s:38 frm:2 25SC_s1
#C wavelength =0.15406

#S 1  fr_average C:\frames\spec\25SC_s1_0038.002 C:\win32app\speccom\mask.axs chi 0 180 0 360 0.02
#C 2 theta =0.000000 to 180 deg
#C   q   =0.000000 to 81.568 nm^-1
#C  chi  =0.000000 to 360 deg
#C collumns:
#C  1 position (2theta or chi in degrees)
#C  2 average intensity (sum of all counts in the region divided with number of pixels)
#C  3 Number of pixels in region)
#C  4 error (sum of sqrt(intensity) for all pixels divided by number)
#N 4
#L TTh  Int  N_pix  Err
32.99 	0.065574 	61 	0.065574
33.03 	0.056794 	1391 	0.055530
33.07 	0.054634 	2050 	0.054634
33.11 	0.064754 	2579 	0.063618
33.15 	0.047016 	2999 	0.046820
33.19 	0.056553 	3342 	0.054918
33.23 	0.057905 	3523 	0.057074
33.27 	0.053719 	3630 	0.052589
33.31 	0.055191 	3660 	0.054391
33.35 	0.060639 	3694 	0.059529
33.39 	0.058729 	3729 	0.058258
33.43 	0.058495 	3761 	0.057872
33.47 	0.057925 	3798 	0.056049
33.51 	0.062123 	3815 	0.061202
33.55 	0.050742 	3843 	0.050132
33.59 	0.055412 	3880 	0.054507
33.63 	0.063792 	3919 	0.062596
33.67 	0.058928 	3954 	0.057150
33.71 	0.053082 	3975 	0.052345
33.75 	0.063516 	3999 	0.062198
33.79 	0.054442 	4041 	0.053427
33.83 	0.058272 	4050 	0.057838
33.87 	0.055704 	4111 	0.054137
33.91 	0.067727 	4149 	0.066857
33.95 	0.052619 	4181 	0.052199
33.99 	0.058095 	4200 	0.057398
34.03 	0.064562 	4244 	0.063872
34.07 	0.061153 	4268 	0.060169
34.11 	0.062762 	4302 	0.061264
34.15 	0.058647 	4331 	0.057835
34.19 	0.052040 	4362 	0.050832
34.23 	0.058957 	4393 	0.057757
34.27 	0.056536 	4422 	0.055476
34.31 	0.059444 	4458 	0.057998
34.35 	0.059545 	4484 	0.058500
34.39 	0.054642 	4502 	0.053992
34.43 	0.058824 	4539 	0.058178
34.47 	0.059233 	4592 	0.058468
34.51 	0.054277 	4606 	0.053514
34.55 	0.053629 	4643 	0.052978
34.59 	0.060749 	4675 	0.060122
34.63 	0.053079 	4710 	0.052581
34.67 	0.053153 	4741 	0.052041
34.71 	0.059799 	4766 	0.058324
34.75 	0.055116 	4808 	0.053776
34.79 	0.060116 	4824 	0.058902
34.83 	0.056150 	4862 	0.055306
34.87 	0.053205 	4868 	0.052723
34.91 	0.060836 	4882 	0.059756
34.95 	0.049898 	4890 	0.049179
34.99 	0.057382 	4897 	0.056784
35.03 	0.049565 	4943 	0.049328
35.07 	0.055263 	4940 	0.054433
35.11 	0.059834 	4947 	0.058887
35.15 	0.055094 	4937 	0.054264
35.19 	0.061716 	4942 	0.060630
35.23 	0.056218 	4945 	0.055152
35.27 	0.057599 	4948 	0.056889
35.31 	0.053923 	4933 	0.052973
35.35 	0.061514 	4942 	0.059736
35.39 	0.052578 	4945 	0.051394
35.43 	0.062437 	4933 	0.061487
35.47 	0.052119 	4931 	0.051525
35.51 	0.058059 	4926 	0.056969
35.55 	0.059858 	4945 	0.058674
35.59 	0.053589 	4945 	0.052523
35.63 	0.056241 	4943 	0.055767
35.67 	0.052408 	4942 	0.051460
35.71 	0.052664 	4937 	0.051952
35.75 	0.055567 	4931 	0.054973
35.79 	0.058191 	4932 	0.057360
35.83 	0.058431 	4946 	0.057583
35.87 	0.053423 	4923 	0.052233
35.91 	0.055612 	4927 	0.054661
35.95 	0.059386 	4917 	0.058433
35.99 	0.057097 	4939 	0.056029
36.03 	0.059276 	4943 	0.057972
36.07 	0.055072 	4939 	0.054479
36.11 	0.062082 	4929 	0.060893
36.15 	0.057906 	4939 	0.057175
36.19 	0.056883 	4940 	0.056527
36.23 	0.063222 	4935 	0.061797
36.27 	0.054822 	4925 	0.054109
36.31 	0.052557 	4928 	0.051962
36.35 	0.054575 	4929 	0.053862
36.39 	0.051616 	4921 	0.050782
36.43 	0.052963 	4928 	0.052368
36.47 	0.055511 	4936 	0.055036
36.51 	0.062639 	4933 	0.061076
36.55 	0.058250 	4927 	0.057180
36.59 	0.060336 	4939 	0.059269
36.63 	0.053742 	4931 	0.052672
36.67 	0.051318 	4930 	0.050724
36.71 	0.049990 	4921 	0.049633
36.75 	0.055421 	4944 	0.054473
36.79 	0.058931 	4921 	0.057979
36.83 	0.054120 	4915 	0.053286
36.87 	0.055016 	4944 	0.054068
36.91 	0.053026 	4941 	0.051939
36.95 	0.049057 	4933 	0.048464
36.99 	0.057751 	4935 	0.056920
37.03 	0.051990 	4924 	0.051395
37.07 	0.054306 	4935 	0.052644
37.11 	0.059777 	4935 	0.059184
37.15 	0.052964 	4909 	0.052228
37.19 	0.050761 	4925 	0.049810
37.23 	0.050224 	4918 	0.049152
37.27 	0.057417 	4894 	0.056460
37.31 	0.051874 	4935 	0.051043
37.35 	0.053665 	4938 	0.052816
37.39 	0.049888 	4931 	0.048938
37.43 	0.051703 	4932 	0.050991
37.47 	0.055184 	4929 	0.054589
37.51 	0.054531 	4933 	0.053581
37.55 	0.055375 	4930 	0.054662
37.59 	0.048830 	4915 	0.048234
37.63 	0.050620 	4919 	0.050144
37.67 	0.050775 	4904 	0.050058
37.71 	0.052343 	4929 	0.051630
37.75 	0.049393 	4940 	0.047851
37.79 	0.053144 	4930 	0.052312
37.83 	0.056098 	4920 	0.055502
37.87 	0.054869 	4939 	0.053802
37.91 	0.052333 	4930 	0.051620
37.95 	0.051412 	4921 	0.050817
37.99 	0.051710 	4912 	0.050637
38.03 	0.053982 	4909 	0.053386
38.07 	0.052760 	4909 	0.052164
38.11 	0.054306 	4935 	0.053712
38.15 	0.056527 	4918 	0.055812
38.19 	0.051724 	4930 	0.050774
38.23 	0.052855 	4938 	0.052025
38.27 	0.058418 	4930 	0.057348
38.31 	0.058047 	4927 	0.056977
38.35 	0.060268 	4928 	0.059198
38.39 	0.063149 	4909 	0.061717
38.43 	0.067535 	4916 	0.066343
38.47 	0.061749 	4907 	0.061032
38.51 	0.063666 	4932 	0.062834
38.55 	0.065843 	4936 	0.064893
38.59 	0.058895 	4924 	0.058300
38.63 	0.060317 	4924 	0.059127
38.67 	0.054284 	4937 	0.053335
38.71 	0.059098 	4924 	0.058385
38.75 	0.051553 	4927 	0.051058
38.79 	0.048845 	4934 	0.047895
38.83 	0.047774 	4919 	0.047159
38.87 	0.053553 	4911 	0.052838
38.91 	0.049358 	4903 	0.048880
38.95 	0.053070 	4918 	0.051998
38.99 	0.053474 	4937 	0.052861
39.03 	0.050669 	4934 	0.050075
39.07 	0.049350 	4924 	0.048160
39.11 	0.047455 	4931 	0.046980
39.15 	0.042930 	4915 	0.042334
39.19 	0.043929 	4917 	0.043572
39.23 	0.048934 	4925 	0.048220
39.27 	0.044807 	4910 	0.043494
39.31 	0.041769 	4884 	0.041049
39.35 	0.040527 	4935 	0.040171
39.39 	0.047880 	4929 	0.047405
39.43 	0.045003 	4933 	0.044291
39.47 	0.048954 	4923 	0.048359
39.51 	0.048132 	4924 	0.047299
39.55 	0.046351 	4919 	0.045755
39.59 	0.046621 	4912 	0.045547
39.63 	0.044900 	4922 	0.044662
39.67 	0.042947 	4913 	0.042232
39.71 	0.047804 	4895 	0.047086
39.75 	0.041802 	4928 	0.041564
39.79 	0.040398 	4926 	0.039328
39.83 	0.043170 	4934 	0.042576
39.87 	0.042234 	4925 	0.041639
39.91 	0.044291 	4922 	0.043934
39.95 	0.045371 	4915 	0.044895
39.99 	0.050892 	4932 	0.050061
40.03 	0.047890 	4928 	0.047058
40.07 	0.047938 	4923 	0.047224
40.11 	0.041904 	4916 	0.041070
40.15 	0.047832 	4913 	0.047355
40.19 	0.038142 	4929 	0.037666
40.23 	0.047445 	4932 	0.046970
40.27 	0.044967 	4937 	0.044017
40.31 	0.043734 	4939 	0.043378
40.35 	0.047571 	4919 	0.046975
40.39 	0.041371 	4931 	0.040896
40.43 	0.043885 	4922 	0.043528
40.47 	0.043107 	4918 	0.042392
40.51 	0.044697 	4922 	0.043983
40.55 	0.047474 	4908 	0.047115
40.59 	0.043751 	4937 	0.043039
40.63 	0.045233 	4930 	0.044639
40.67 	0.041565 	4932 	0.041209
40.71 	0.050487 	4932 	0.049893
40.75 	0.041574 	4931 	0.041099
40.79 	0.042851 	4924 	0.041999
40.83 	0.041802 	4928 	0.041564
40.87 	0.042614 	4928 	0.042138
40.91 	0.033110 	4923 	0.033110
40.95 	0.039284 	4913 	0.038807
40.99 	0.040414 	4924 	0.040414
41.03 	0.042610 	4905 	0.042012
41.07 	0.044016 	4930 	0.043422
41.11 	0.045593 	4935 	0.044881
41.15 	0.044525 	4941 	0.043696
41.19 	0.042596 	4930 	0.042121
41.23 	0.047378 	4939 	0.046666
41.27 	0.040357 	4931 	0.039763
41.31 	0.037908 	4933 	0.037552
41.35 	0.040907 	4938 	0.040314
41.39 	0.037097 	4933 	0.037097
41.43 	0.039359 	4929 	0.039121
41.47 	0.035323 	4926 	0.034966
41.51 	0.039676 	4940 	0.039439
41.55 	0.042553 	4935 	0.041960
41.59 	0.037503 	4933 	0.037146
41.63 	0.038882 	4938 	0.038526
41.67 	0.042713 	4940 	0.041863
41.71 	0.041954 	4934 	0.041835
41.75 	0.039156 	4929 	0.038799
41.79 	0.042880 	4944 	0.041814
41.83 	0.044237 	4928 	0.043643
41.87 	0.040324 	4935 	0.039731
41.91 	0.038695 	4936 	0.038102
41.95 	0.036098 	4931 	0.035623
41.99 	0.039755 	4905 	0.039636
42.03 	0.039077 	4939 	0.038840
42.07 	0.039093 	4937 	0.038737
42.11 	0.039838 	4945 	0.039364
42.15 	0.033819 	4938 	0.033701
42.19 	0.038509 	4908 	0.037912
42.23 	0.038226 	4892 	0.037986
42.27 	0.037136 	4874 	0.036655
42.31 	0.038311 	4855 	0.037949
42.35 	0.037412 	4838 	0.037049
42.39 	0.038926 	4804 	0.038804
42.43 	0.041945 	4792 	0.041334
42.47 	0.036516 	4765 	0.035881
42.51 	0.044065 	4743 	0.043694
42.55 	0.035259 	4708 	0.034637
42.59 	0.033622 	4729 	0.033003
42.63 	0.038012 	4709 	0.037639
42.67 	0.039283 	4684 	0.038657
42.71 	0.036028 	4663 	0.035903
42.75 	0.037037 	4617 	0.036910
42.79 	0.034046 	4582 	0.032896
42.83 	0.038580 	4536 	0.038451
42.87 	0.037342 	4499 	0.036821
42.91 	0.036804 	4456 	0.036673
42.95 	0.034194 	4416 	0.033929
42.99 	0.036488 	4385 	0.035798
43.03 	0.033464 	4333 	0.033059
43.07 	0.034218 	4296 	0.033536
43.11 	0.037368 	4255 	0.036542
43.15 	0.039943 	4206 	0.039525
43.19 	0.033858 	4194 	0.033579
43.23 	0.036832 	4154 	0.036409
43.27 	0.039220 	4105 	0.039078
43.31 	0.034567 	4079 	0.034136
43.35 	0.035714 	4032 	0.035569
43.39 	0.037231 	4002 	0.036500
43.43 	0.040657 	3960 	0.040213
43.47 	0.044887 	3921 	0.044438
43.51 	0.038948 	3877 	0.038192
43.55 	0.040486 	2964 	0.040486
43.59 	0.034937 	1746 	0.033595
43.63 	0.039960 	1001 	0.039375
43.67 	0.035857 	502 	0.035857
43.71 	0.046025 	239 	0.046025
43.75 	0.125000 	16 	0.125000

File: 25SC_s1_0038.003.dat
#F C:\frames\spec\25SC_s1_0038.003
#C title =s:38 frm:3 25SC_s1
#C wavelength =0.15406

#S 1  fr_average C:\frames\spec\25SC_s1_0038.003 C:\win32app\speccom\mask.axs chi 0 180 0 360 0.02
#C 2 theta =0.000000 to 180 deg
#C   q   =0.000000 to 81.568 nm^-1
#C  chi  =0.000000 to 360 deg
#C collumns:
#C  1 position (2theta or chi in degrees)
#C  2 average intensity (sum of all counts in the region divided with number of pixels)
#C  3 Number of pixels in region)
#C  4 error (sum of sqrt(intensity) for all pixels divided by number)
#N 4
#L TTh  Int  N_pix  Err
32.99 	0.049180 	61 	0.049180
33.03 	0.065421 	1391 	0.062052
33.07 	0.061951 	2050 	0.059951
33.11 	0.057774 	2579 	0.056601
33.15 	0.056352 	2999 	0.055180
33.19 	0.047876 	3342 	0.047146
33.23 	0.060176 	3523 	0.059511
33.27 	0.057025 	3630 	0.056379
33.31 	0.055464 	3660 	0.054824
33.35 	0.054683 	3694 	0.053890
33.39 	0.051488 	3729 	0.050703
33.43 	0.060888 	3761 	0.059954
33.47 	0.060032 	3798 	0.059415
33.51 	0.051114 	3815 	0.050500
33.55 	0.061410 	3843 	0.060801
33.59 	0.060052 	3880 	0.059448
33.63 	0.062261 	3919 	0.061065
33.67 	0.059686 	3954 	0.059094
33.71 	0.055094 	3975 	0.053915
33.75 	0.062516 	3999 	0.061197
33.79 	0.057164 	4041 	0.056584
33.83 	0.057778 	4050 	0.057199
33.87 	0.057164 	4111 	0.056879
33.91 	0.059291 	4149 	0.058585
33.95 	0.059794 	4181 	0.058814
33.99 	0.059524 	4200 	0.059245
34.03 	0.053487 	4244 	0.052222
34.07 	0.055998 	4268 	0.055037
34.11 	0.056950 	4302 	0.056406
34.15 	0.060956 	4331 	0.059333
34.19 	0.059606 	4362 	0.058644
34.23 	0.065104 	4393 	0.063860
34.27 	0.055179 	4422 	0.054384
34.31 	0.061238 	4458 	0.060713
34.35 	0.056200 	4484 	0.055285
34.39 	0.058863 	4502 	0.058082
34.43 	0.068077 	4539 	0.066765
34.47 	0.055749 	4592 	0.054601
34.51 	0.057751 	4606 	0.056840
34.55 	0.057506 	4643 	0.055992
34.59 	0.053690 	4675 	0.052186
34.63 	0.058811 	4710 	0.058438
34.67 	0.059481 	4741 	0.058740
34.71 	0.056861 	4766 	0.055878
34.75 	0.056572 	4808 	0.055598
34.79 	0.058043 	4824 	0.057193
34.83 	0.060469 	4862 	0.059264
34.87 	0.058956 	4868 	0.058475
34.91 	0.060631 	4882 	0.059551
34.95 	0.063599 	4890 	0.062162
34.99 	0.055953 	4897 	0.054996
35.03 	0.057860 	4943 	0.056774
35.07 	0.056883 	4940 	0.055460
35.11 	0.056196 	4947 	0.054893
35.15 	0.059955 	4937 	0.058888
35.19 	0.059288 	4942 	0.058695
35.23 	0.058847 	4945 	0.057544
35.27 	0.062449 	4948 	0.060161
35.31 	0.059801 	4933 	0.058614
35.35 	0.057669 	4942 	0.056839
35.39 	0.060465 	4945 	0.059754
35.43 	0.054125 	4933 	0.053175
35.47 	0.058609 	4931 	0.057064
35.51 	0.057653 	4926 	0.056345
35.55 	0.055410 	4945 	0.054106
35.59 	0.055410 	4945 	0.054817
35.63 	0.058264 	4943 	0.057316
35.67 	0.057871 	4942 	0.056449
35.71 	0.060766 	4937 	0.060172
35.75 	0.057798 	4931 	0.056828
35.79 	0.053933 	4932 	0.052865
35.83 	0.059240 	4946 	0.058016
35.87 	0.056063 	4923 	0.054279
35.91 	0.055409 	4927 	0.054339
35.95 	0.052878 	4917 	0.052163
35.99 	0.055679 	4939 	0.054948
36.03 	0.054825 	4943 	0.054114
36.07 	0.057097 	4939 	0.055535
36.11 	0.053966 	4929 	0.052778
36.15 	0.049403 	4939 	0.048810
36.19 	0.057692 	4940 	0.056862
36.23 	0.054914 	4935 	0.054202
36.27 	0.055228 	4925 	0.054515
36.31 	0.058036 	4928 	0.056966
36.35 	0.059444 	4929 	0.058256
36.39 	0.057712 	4921 	0.056402
36.43 	0.049107 	4928 	0.048275
36.47 	0.054092 	4936 	0.052886
36.51 	0.054328 	4933 	0.053497
36.55 	0.059265 	4927 	0.057443
36.59 	0.053047 	4939 	0.052573
36.63 	0.059420 	4931 	0.058351
36.67 	0.057809 	4930 	0.057453
36.71 	0.051616 	4921 	0.051020
36.75 	0.053803 	4944 	0.053092
36.79 	0.051412 	4921 	0.050579
36.83 	0.055137 	4915 	0.054541
36.87 	0.053398 	4944 	0.053161
36.91 	0.058085 	4941 	0.057018
36.95 	0.057369 	4933 	0.057131
36.99 	0.056332 	4935 	0.055225
37.03 	0.056458 	4924 	0.055011
37.07 	0.055117 	4935 	0.054523
37.11 	0.054914 	4935 	0.054063
37.15 	0.052964 	4909 	0.052009
37.19 	0.054416 	4925 	0.053822
37.23 	0.053274 	4918 	0.052916
37.27 	0.049857 	4894 	0.049378
37.31 	0.050456 	4935 	0.049724
37.35 	0.048198 	4938 	0.047486
37.39 	0.049280 	4931 	0.048567
37.43 	0.048054 	4932 	0.047697
37.47 	0.051938 	4929 	0.050987
37.51 	0.053923 	4933 	0.053566
37.55 	0.054158 	4930 	0.052832
37.59 	0.052289 	4915 	0.051574
37.63 	0.045741 	4919 	0.045146
37.67 	0.045677 	4904 	0.045080
37.71 	0.050314 	4929 	0.049106
37.75 	0.050810 	4940 	0.049861
37.79 	0.052130 	4930 	0.051655
37.83 	0.053252 	4920 	0.052776
37.87 	0.052845 	4939 	0.052370
37.91 	0.053753 	4930 	0.053396
37.95 	0.048974 	4921 	0.048260
37.99 	0.050692 	4912 	0.050215
38.03 	0.051945 	4909 	0.051448
38.07 	0.049297 	4909 	0.048701
38.11 	0.055319 	4935 	0.054963
38.15 	0.055917 	4918 	0.055321
38.19 	0.054158 	4930 	0.053089
38.23 	0.059741 	4938 	0.057843
38.27 	0.049696 	4930 	0.049339
38.31 	0.049523 	4927 	0.048691
38.35 	0.058442 	4928 	0.057728
38.39 	0.064168 	4909 	0.063194
38.43 	0.067535 	4916 	0.066343
38.47 	0.056654 	4907 	0.055202
38.51 	0.057178 	4932 	0.055594
38.55 	0.060575 	4936 	0.060219
38.59 	0.057271 	4924 	0.056676
38.63 	0.054630 	4924 	0.053560
38.67 	0.056107 	4937 	0.055158
38.71 	0.059911 	4924 	0.059316
38.75 	0.049117 	4927 	0.048265
38.79 	0.047629 	4934 	0.047273
38.83 	0.049197 	4919 	0.048721
38.87 	0.051313 	4911 	0.050478
38.91 	0.052009 	4903 	0.051053
38.95 	0.047377 	4918 	0.046781
38.99 	0.045169 	4937 	0.044813
39.03 	0.050263 	4934 	0.050026
39.07 	0.050772 	4924 	0.050296
39.11 	0.044007 	4931 	0.043413
39.15 	0.052085 	4915 	0.051013
39.19 	0.047387 	4917 	0.046910
39.23 	0.051168 	4925 	0.051049
39.27 	0.045621 	4910 	0.045263
39.31 	0.047297 	4884 	0.046818
39.35 	0.045998 	4935 	0.045761
39.39 	0.046054 	4929 	0.045103
39.43 	0.042976 	4933 	0.042145
39.47 	0.045907 	4923 	0.045312
39.51 	0.047116 	4924 	0.046521
39.55 	0.045741 	4919 	0.045503
39.59 	0.048860 	4912 	0.048383
39.63 	0.044494 	4922 	0.044018
39.67 	0.050885 	4913 	0.050289
39.71 	0.044740 	4895 	0.044022
39.75 	0.049107 	4928 	0.048156
39.79 	0.047503 	4926 	0.047265
39.83 	0.044994 	4934 	0.044163
39.87 	0.047513 	4925 	0.047037
39.91 	0.048151 	4922 	0.047794
39.95 	0.049644 	4915 	0.048810
39.99 	0.044404 	4932 	0.044166
40.03 	0.047078 	4928 	0.046602
40.07 	0.048345 	4923 	0.047988
40.11 	0.051465 	4916 	0.050869
40.15 	0.046204 	4913 	0.045727
40.19 	0.043417 	4929 	0.042446
40.23 	0.045823 	4932 	0.045467
40.27 	0.045169 	4937 	0.044576
40.31 	0.041709 	4939 	0.041353
40.35 	0.044725 	4919 	0.043891
40.39 	0.040357 	4931 	0.039882
40.43 	0.049573 	4922 	0.048859
40.47 	0.041887 	4918 	0.041053
40.51 	0.046323 	4922 	0.045490
40.55 	0.040546 	4908 	0.039949
40.59 	0.046587 	4937 	0.045875
40.63 	0.044828 	4930 	0.044115
40.67 	0.048459 	4932 	0.047628
40.71 	0.046431 	4932 	0.046075
40.75 	0.042993 	4931 	0.042162
40.79 	0.048741 	4924 	0.047551
40.83 	0.050731 	4928 	0.049185
40.87 	0.049107 	4928 	0.048632
40.91 	0.044079 	4923 	0.043722
40.95 	0.044372 	4913 	0.044014
40.99 	0.041024 	4924 	0.040786
41.03 	0.043425 	4905 	0.042709
41.07 	0.043205 	4930 	0.042967
41.11 	0.048024 	4935 	0.047668
41.15 	0.043311 	4941 	0.042669
41.19 	0.043813 	4930 	0.042982
41.23 	0.041506 	4939 	0.041032
41.27 	0.043805 	4931 	0.043310
41.31 	0.044800 	4933 	0.043969
41.35 	0.042325 	4938 	0.041238
41.39 	0.047233 	4933 	0.046639
41.43 	0.039968 	4929 	0.039611
41.47 	0.039992 	4926 	0.039278
41.51 	0.041093 	4940 	0.040619
41.55 	0.044174 	4935 	0.043818
41.59 	0.041354 	4933 	0.040760
41.63 	0.045768 	4938 	0.045293
41.67 	0.040891 	4940 	0.040654
41.71 	0.044791 	4934 	0.044673
41.75 	0.044228 	4929 	0.043753
41.79 	0.041464 	4944 	0.040872
41.83 	0.041396 	4928 	0.040921
41.87 	0.043161 	4935 	0.042449
41.91 	0.039708 	4936 	0.039590
41.95 	0.037721 	4931 	0.037483
41.99 	0.039551 	4905 	0.039432
42.03 	0.039279 	4939 	0.038568
42.07 	0.040916 	4937 	0.040560
42.11 	0.042467 	4945 	0.041875
42.15 	0.036655 	4938 	0.036536
42.19 	0.041361 	4908 	0.041122
42.23 	0.045380 	4892 	0.044901
42.27 	0.034469 	4874 	0.033868
42.31 	0.038929 	4855 	0.038205
42.35 	0.039066 	4838 	0.038824
42.39 	0.038926 	4804 	0.038560
42.43 	0.045075 	4792 	0.044464
42.47 	0.035887 	4765 	0.035272
42.51 	0.040481 	4743 	0.039987
42.55 	0.040569 	4708 	0.040072
42.59 	0.040601 	4729 	0.039857
42.63 	0.044808 	4709 	0.044683
42.67 	0.043766 	4684 	0.042995
42.71 	0.036886 	4663 	0.036635
42.75 	0.038986 	4617 	0.038225
42.79 	0.040157 	4582 	0.039774
42.83 	0.038139 	4536 	0.037494
42.87 	0.044454 	4499 	0.043803
42.91 	0.038375 	4456 	0.037981
42.95 	0.039402 	4416 	0.038850
42.99 	0.035120 	4385 	0.035120
43.03 	0.043619 	4333 	0.043078
43.07 	0.043296 	4296 	0.042751
43.11 	0.038308 	4255 	0.037735
43.15 	0.041369 	4206 	0.040812
43.19 	0.045780 	4194 	0.044942
43.23 	0.043572 	4154 	0.043008
43.27 	0.044580 	4105 	0.044152
43.31 	0.032116 	4079 	0.031972
43.35 	0.047867 	4032 	0.046995
43.39 	0.040730 	4002 	0.040144
43.43 	0.042677 	3960 	0.041937
43.47 	0.033410 	3921 	0.032812
43.51 	0.040753 	3877 	0.039847
43.55 	0.034413 	2964 	0.034018
43.59 	0.045246 	1746 	0.044911
43.63 	0.035964 	1001 	0.035964
43.67 	0.047809 	502 	0.047809
43.71 	0.037657 	239 	0.037657
43.75 	0.062500 	16 	0.062500