Folder: Bessy-II-KMC-II-insitu-sin2psi/Example_Data (part 104)

File: 25SC_s1_0042.000.dat
#F C:\frames\spec\25SC_s1_0042.000
#C title =s:42 frm:0 25SC_s1
#C wavelength =0.15406

#S 1  fr_average C:\frames\spec\25SC_s1_0042.000 C:\win32app\speccom\mask.axs chi 0 180 0 360 0.02
#C 2 theta =0.000000 to 180 deg
#C   q   =0.000000 to 81.568 nm^-1
#C  chi  =0.000000 to 360 deg
#C collumns:
#C  1 position (2theta or chi in degrees)
#C  2 average intensity (sum of all counts in the region divided with number of pixels)
#C  3 Number of pixels in region)
#C  4 error (sum of sqrt(intensity) for all pixels divided by number)
#N 4
#L TTh  Int  N_pix  Err
32.99 	0.016393 	61 	0.016393
33.03 	0.064702 	1391 	0.063859
33.07 	0.061951 	2050 	0.061665
33.11 	0.065917 	2579 	0.063381
33.15 	0.065022 	2999 	0.064045
33.19 	0.058348 	3342 	0.057472
33.23 	0.062447 	3523 	0.061422
33.27 	0.055647 	3630 	0.054679
33.31 	0.061202 	3660 	0.060402
33.35 	0.060097 	3694 	0.058327
33.39 	0.058997 	3729 	0.058055
33.43 	0.062749 	3761 	0.061971
33.47 	0.055292 	3798 	0.054521
33.51 	0.056881 	3815 	0.055806
33.55 	0.059849 	3843 	0.058782
33.59 	0.056186 	3880 	0.055280
33.63 	0.054861 	3919 	0.053192
33.67 	0.054375 	3954 	0.053635
33.71 	0.061635 	3975 	0.060456
33.75 	0.059265 	3999 	0.057946
33.79 	0.061866 	4041 	0.061431
33.83 	0.059506 	4050 	0.058204
33.87 	0.058380 	4111 	0.057074
33.91 	0.058568 	4149 	0.057580
33.95 	0.057163 	4181 	0.056019
33.99 	0.064286 	4200 	0.062752
34.03 	0.062677 	4244 	0.061711
34.07 	0.056232 	4268 	0.054860
34.11 	0.059275 	4302 	0.058435
34.15 	0.060956 	4331 	0.059739
34.19 	0.061898 	4362 	0.061227
34.23 	0.058275 	4393 	0.057741
34.27 	0.053596 	4422 	0.052933
34.31 	0.059668 	4458 	0.058091
34.35 	0.064228 	4484 	0.063575
34.39 	0.058418 	4502 	0.057616
34.43 	0.057281 	4539 	0.056378
34.47 	0.052483 	4592 	0.051972
34.51 	0.056448 	4606 	0.056194
34.55 	0.057937 	4643 	0.056801
34.59 	0.057112 	4675 	0.055734
34.63 	0.062208 	4710 	0.060840
34.67 	0.050622 	4741 	0.050252
34.71 	0.056441 	4766 	0.055335
34.75 	0.057404 	4808 	0.056064
34.79 	0.063018 	4824 	0.061561
34.83 	0.053682 	4862 	0.052597
34.87 	0.058546 	4868 	0.057342
34.91 	0.054281 	4882 	0.053441
34.95 	0.054601 	4890 	0.054122
34.99 	0.060037 	4897 	0.059080
35.03 	0.055230 	4943 	0.054519
35.07 	0.056883 	4940 	0.056053
35.11 	0.057813 	4947 	0.056747
35.15 	0.064006 	4937 	0.061752
35.19 	0.059490 	4942 	0.058779
35.23 	0.060263 	4945 	0.059197
35.27 	0.058003 	4948 	0.057056
35.31 	0.052706 	4933 	0.052113
35.35 	0.055848 	4942 	0.055137
35.39 	0.061881 	4945 	0.060459
35.43 	0.061018 	4933 	0.059811
35.47 	0.054553 	4931 	0.053484
35.51 	0.056029 	4926 	0.055197
35.55 	0.057634 	4945 	0.056449
35.59 	0.054803 	4945 	0.053855
35.63 	0.059276 	4943 	0.057617
35.67 	0.058883 	4942 	0.058290
35.71 	0.056917 	4937 	0.056324
35.75 	0.056986 	4931 	0.056135
35.79 	0.057380 	4932 	0.056391
35.83 	0.058229 	4946 	0.056926
35.87 	0.060126 	4923 	0.058460
35.91 	0.051350 	4927 	0.050636
35.95 	0.057352 	4917 	0.056280
35.99 	0.058716 	4939 	0.057530
36.03 	0.051588 	4943 	0.050621
36.07 	0.059121 	4939 	0.057935
36.11 	0.058024 	4929 	0.056717
36.15 	0.054869 	4939 	0.053921
36.19 	0.054656 	4940 	0.053351
36.23 	0.063425 	4935 	0.062119
36.27 	0.052792 	4925 	0.052554
36.31 	0.061080 	4928 	0.059891
36.35 	0.061067 	4929 	0.059621
36.39 	0.059541 	4921 	0.058231
36.43 	0.055195 	4928 	0.054244
36.47 	0.055713 	4936 	0.054764
36.51 	0.054733 	4933 	0.054021
36.55 	0.054597 	4927 	0.054122
36.59 	0.057299 	4939 	0.056587
36.63 	0.061651 	4931 	0.059988
36.67 	0.051724 	4930 	0.050774
36.71 	0.061979 	4921 	0.060789
36.75 	0.061084 	4944 	0.059524
36.79 	0.061573 	4921 	0.060859
36.83 	0.057375 	4915 	0.056184
36.87 	0.061084 	4944 	0.059662
36.91 	0.058085 	4941 	0.057256
36.95 	0.054531 	4933 	0.054056
36.99 	0.054711 	4935 	0.054118
37.03 	0.057271 	4924 	0.056795
37.07 	0.059574 	4935 	0.058862
37.11 	0.058967 	4935 	0.057542
37.15 	0.051742 	4909 	0.050787
37.19 	0.052183 	4925 	0.051707
37.23 	0.061000 	4918 	0.060286
37.27 	0.060074 	4894 	0.059355
37.31 	0.061601 	4935 	0.060038
37.35 	0.057108 	4938 	0.055922
37.39 	0.062868 	4931 	0.061185
37.43 	0.056164 	4932 	0.055808
37.47 	0.058633 	4929 	0.057444
37.51 	0.058585 	4933 	0.057616
37.55 	0.057201 	4930 	0.055894
37.59 	0.056358 	4915 	0.054809
37.63 	0.055499 	4919 	0.054765
37.67 	0.061378 	4904 	0.060901
37.71 	0.062082 	4929 	0.060893
37.75 	0.056883 	4940 	0.055815
37.79 	0.056998 	4930 	0.056523
37.83 	0.059553 	4920 	0.058581
37.87 	0.060336 	4939 	0.059862
37.91 	0.065720 	4930 	0.065126
37.95 	0.051412 	4921 	0.050817
37.99 	0.057207 	4912 	0.056611
38.03 	0.055816 	4909 	0.055219
38.07 	0.059075 	4909 	0.058121
38.11 	0.056940 	4935 	0.055734
38.15 	0.060390 	4918 	0.059557
38.19 	0.065314 	4930 	0.063651
38.23 	0.067639 	4938 	0.066690
38.27 	0.067343 	4930 	0.066630
38.31 	0.080170 	4927 	0.078387
38.35 	0.072849 	4928 	0.071898
38.39 	0.082909 	4909 	0.081338
38.43 	0.081367 	4916 	0.079580
38.47 	0.089872 	4907 	0.087067
38.51 	0.088808 	4932 	0.086432
38.55 	0.081645 	4936 	0.080340
38.59 	0.079407 	4924 	0.078217
38.63 	0.076361 	4924 	0.074219
38.67 	0.070893 	4937 	0.070063
38.71 	0.071690 	4924 	0.069886
38.75 	0.065354 	4927 	0.064522
38.79 	0.058370 	4934 	0.058014
38.83 	0.053873 	4919 	0.053039
38.87 	0.046019 	4911 	0.045065
38.91 	0.050989 	4903 	0.049555
38.95 	0.054494 	4918 	0.053660
38.99 	0.051651 	4937 	0.051295
39.03 	0.047426 	4934 	0.046832
39.07 	0.047725 	4924 	0.047131
39.11 	0.048469 	4931 	0.047756
39.15 	0.046185 	4915 	0.045470
39.19 	0.049014 	4917 	0.047803
39.23 	0.048122 	4925 	0.047765
39.27 	0.043788 	4910 	0.042933
39.31 	0.042383 	4884 	0.041784
39.35 	0.044782 	4935 	0.044545
39.39 	0.043417 	4929 	0.042585
39.43 	0.043989 	4933 	0.043277
39.47 	0.052001 	4923 	0.050811
39.51 	0.051178 	4924 	0.050464
39.55 	0.043505 	4919 	0.042909
39.59 	0.042956 	4912 	0.042240
39.63 	0.044900 	4922 	0.044305
39.67 	0.046204 	4913 	0.045489
39.71 	0.048008 	4895 	0.047051
39.75 	0.043222 	4928 	0.042271
39.79 	0.046082 	4926 	0.045844
39.83 	0.045805 	4934 	0.044617
39.87 	0.046497 	4925 	0.046260
39.91 	0.039009 	4922 	0.038771
39.95 	0.049644 	4915 	0.049286
39.99 	0.043593 	4932 	0.043237
40.03 	0.038555 	4928 	0.038080
40.07 	0.041438 	4923 	0.040962
40.11 	0.043328 	4916 	0.042851
40.15 	0.044779 	4913 	0.043706
40.19 	0.050517 	4929 	0.050161
40.23 	0.041363 	4932 	0.040412
40.27 	0.044764 	4937 	0.044289
40.31 	0.045151 	4939 	0.044914
40.35 	0.043301 	4919 	0.042468
40.39 	0.041371 	4931 	0.041015
40.43 	0.044697 	4922 	0.043983
40.47 	0.042294 	4918 	0.042055
40.51 	0.042666 	4922 	0.042428
40.55 	0.043602 	4908 	0.043244
40.59 	0.039093 	4937 	0.038262
40.63 	0.048276 	4930 	0.047682
40.67 	0.043593 	4932 	0.042643
40.71 	0.041768 	4932 	0.041293
40.75 	0.043602 	4931 	0.042889
40.79 	0.041430 	4924 	0.041073
40.83 	0.044034 	4928 	0.042845
40.87 	0.039773 	4928 	0.039278
40.91 	0.043063 	4923 	0.042468
40.95 	0.037045 	4913 	0.036448
40.99 	0.038383 	4924 	0.037789
41.03 	0.043629 	4905 	0.042912
41.07 	0.041379 	4930 	0.040904
41.11 	0.037487 	4935 	0.036894
41.15 	0.039061 	4941 	0.038824
41.19 	0.045639 	4930 	0.045164
41.23 	0.039482 	4939 	0.039007
41.27 	0.045224 	4931 	0.045105
41.31 	0.040341 	4933 	0.039509
41.35 	0.034832 	4938 	0.034357
41.39 	0.039732 	4933 	0.039139
41.43 	0.045445 	4929 	0.045326
41.47 	0.047300 	4926 	0.046468
41.51 	0.042308 	4940 	0.041833
41.55 	0.039311 	4935 	0.038599
41.59 	0.041557 	4933 	0.040963
41.63 	0.040502 	4938 	0.040146
41.67 	0.044534 	4940 	0.044060
41.71 	0.039116 	4934 	0.038167
41.75 	0.037939 	4929 	0.037582
41.79 	0.034992 	4944 	0.034518
41.83 	0.040179 	4928 	0.039941
41.87 	0.046201 	4935 	0.045488
41.91 	0.043963 	4936 	0.043369
41.95 	0.041168 	4931 	0.040693
41.99 	0.036901 	4905 	0.036543
42.03 	0.039684 	4939 	0.039328
42.07 	0.041726 	4937 	0.041251
42.11 	0.038423 	4945 	0.038067
42.15 	0.041515 	4938 	0.040922
42.19 	0.040546 	4908 	0.040188
42.23 	0.045176 	4892 	0.045056
42.27 	0.044112 	4874 	0.043751
42.31 	0.037075 	4855 	0.036955
42.35 	0.039066 	4838 	0.038460
42.39 	0.043297 	4804 	0.042688
42.43 	0.046536 	4792 	0.046169
42.47 	0.039035 	4765 	0.038543
42.51 	0.035421 	4743 	0.035174
42.55 	0.040782 	4708 	0.039911
42.59 	0.033411 	4729 	0.033039
42.63 	0.040985 	4709 	0.040737
42.67 	0.039923 	4684 	0.039548
42.71 	0.037744 	4663 	0.037367
42.75 	0.032705 	4617 	0.032578
42.79 	0.037102 	4582 	0.036590
42.83 	0.041005 	4536 	0.040618
42.87 	0.039342 	4499 	0.038951
42.91 	0.036355 	4456 	0.035435
42.95 	0.040082 	4416 	0.039286
42.99 	0.031015 	4385 	0.030614
43.03 	0.038080 	4333 	0.037945
43.07 	0.039106 	4296 	0.039106
43.11 	0.035488 	4255 	0.034799
43.15 	0.038279 	4206 	0.037722
43.19 	0.036242 	4194 	0.035684
43.23 	0.038758 	4154 	0.038617
43.27 	0.042387 	4105 	0.041817
43.31 	0.037754 	4079 	0.037467
43.35 	0.039931 	4032 	0.039640
43.39 	0.035982 	4002 	0.035543
43.43 	0.040152 	3960 	0.039856
43.47 	0.037235 	3921 	0.037235
43.51 	0.036626 	3877 	0.036148
43.55 	0.033738 	2964 	0.033541
43.59 	0.036655 	1746 	0.036320
43.63 	0.041958 	1001 	0.041373
43.67 	0.031873 	502 	0.031873
43.71 	0.037657 	239 	0.037657
43.75 	0.000000 	16 	0.000000

File: 25SC_s1_0042.001.dat
#F C:\frames\spec\25SC_s1_0042.001
#C title =s:42 frm:1 25SC_s1
#C wavelength =0.15406

#S 1  fr_average C:\frames\spec\25SC_s1_0042.001 C:\win32app\speccom\mask.axs chi 0 180 0 360 0.02
#C 2 theta =0.000000 to 180 deg
#C   q   =0.000000 to 81.568 nm^-1
#C  chi  =0.000000 to 360 deg
#C collumns:
#C  1 position (2theta or chi in degrees)
#C  2 average intensity (sum of all counts in the region divided with number of pixels)
#C  3 Number of pixels in region)
#C  4 error (sum of sqrt(intensity) for all pixels divided by number)
#N 4
#L TTh  Int  N_pix  Err
32.99 	0.049180 	61 	0.049180
33.03 	0.073329 	1391 	0.072065
33.07 	0.066829 	2050 	0.065972
33.11 	0.058162 	2579 	0.056989
33.15 	0.057352 	2999 	0.056766
33.19 	0.058348 	3342 	0.057472
33.23 	0.065569 	3523 	0.064904
33.27 	0.057576 	3630 	0.056608
33.31 	0.054645 	3660 	0.054005
33.35 	0.058473 	3694 	0.057363
33.39 	0.066238 	3729 	0.065609
33.43 	0.060090 	3761 	0.059156
33.47 	0.059242 	3798 	0.057699
33.51 	0.058978 	3815 	0.058056
33.55 	0.057247 	3843 	0.056942
33.59 	0.062113 	3880 	0.061359
33.63 	0.057413 	3919 	0.056815
33.67 	0.066262 	3954 	0.065669
33.71 	0.060377 	3975 	0.059493
33.75 	0.054264 	3999 	0.053531
33.79 	0.055432 	4041 	0.054562
33.83 	0.059012 	4050 	0.057566
33.87 	0.066650 	4111 	0.065795
33.91 	0.063389 	4149 	0.062259
33.95 	0.057642 	4181 	0.056381
33.99 	0.061429 	4200 	0.060034
34.03 	0.060085 	4244 	0.059395
34.07 	0.060684 	4268 	0.059449
34.11 	0.054858 	4302 	0.054019
34.15 	0.053336 	4331 	0.052795
34.19 	0.052270 	4362 	0.051464
34.23 	0.051673 	4393 	0.050340
34.27 	0.059023 	4422 	0.058493
34.31 	0.049798 	4458 	0.049535
34.35 	0.062890 	4484 	0.061845
34.39 	0.053754 	4502 	0.052453
34.43 	0.055739 	4539 	0.054836
34.47 	0.058580 	4592 	0.057028
34.51 	0.058836 	4606 	0.056908
34.55 	0.052983 	4643 	0.051847
34.59 	0.052406 	4675 	0.051905
34.63 	0.056900 	4710 	0.055657
34.67 	0.052521 	4741 	0.052273
34.71 	0.058959 	4766 	0.058099
34.75 	0.056572 	4808 	0.055354
34.79 	0.056592 	4824 	0.055378
34.83 	0.053065 	4862 	0.052342
34.87 	0.053615 	4868 	0.052532
34.91 	0.063294 	4882 	0.061854
34.95 	0.054397 	4890 	0.053798
34.99 	0.059220 	4897 	0.058143
35.03 	0.058264 	4943 	0.056961
35.07 	0.053441 	4940 	0.052493
35.11 	0.051749 	4947 	0.050801
35.15 	0.059145 	4937 	0.057840
35.19 	0.057467 	4942 	0.056281
35.23 	0.053185 	4945 	0.052474
35.27 	0.054365 	4948 	0.053537
35.31 	0.056152 	4933 	0.055440
35.35 	0.058681 	4942 	0.057851
35.39 	0.049545 	4945 	0.049071
35.43 	0.064464 	4933 	0.063019
35.47 	0.052322 	4931 	0.051372
35.51 	0.052375 	4926 	0.051781
35.55 	0.060465 	4945 	0.059281
35.59 	0.061274 	4945 	0.060800
35.63 	0.053611 	4943 	0.053019
35.67 	0.057669 	4942 	0.056247
35.71 	0.058132 	4937 	0.057658
35.75 	0.060231 	4931 	0.059637
35.79 	0.062449 	4932 	0.061262
35.83 	0.056005 	4946 	0.054939
35.87 	0.058298 	4923 	0.057822
35.91 	0.057033 	4927 	0.056200
35.95 	0.060403 	4917 	0.059192
35.99 	0.057502 	4939 	0.057027
36.03 	0.055837 	4943 	0.054770
36.07 	0.057704 	4939 	0.056992
36.11 	0.054981 	4929 	0.054030
36.15 	0.053452 	4939 	0.052622
36.19 	0.057287 	4940 	0.056220
36.23 	0.059980 	4935 	0.058674
36.27 	0.058680 	4925 	0.057729
36.31 	0.058036 	4928 	0.057441
36.35 	0.055792 	4929 	0.054604
36.39 	0.053851 	4921 	0.052899
36.43 	0.057021 	4928 	0.055456
36.47 	0.054295 	4936 	0.052990
36.51 	0.057774 	4933 	0.056349
36.55 	0.055206 	4927 	0.054136
36.59 	0.056692 	4939 	0.055961
36.63 	0.053944 	4931 	0.053588
36.67 	0.054361 	4930 	0.053529
36.71 	0.054460 	4921 	0.053270
36.75 	0.054612 	4944 	0.053782
36.79 	0.055273 	4921 	0.054321
36.83 	0.050661 	4915 	0.050065
36.87 	0.058657 	4944 	0.056998
36.91 	0.054442 	4941 	0.053949
36.95 	0.050274 	4933 	0.049779
36.99 	0.056535 	4935 	0.055585
37.03 	0.052396 	4924 	0.051068
37.07 	0.050861 	4935 	0.049674
37.11 	0.057345 	4935 	0.056871
37.15 	0.054797 	4909 	0.053962
37.19 	0.055431 	4925 	0.055194
37.23 	0.052664 	4918 	0.051830
37.27 	0.059052 	4894 	0.058334
37.31 	0.055927 	4935 	0.055452
37.35 	0.057513 	4938 	0.055912
37.39 	0.055972 	4931 	0.054784
37.43 	0.057178 	4932 	0.055495
37.47 	0.055589 	4929 	0.054757
37.51 	0.057166 	4933 	0.056097
37.55 	0.049696 	4930 	0.048745
37.59 	0.053917 	4915 	0.052586
37.63 	0.055499 	4919 	0.054308
37.67 	0.062398 	4904 	0.061303
37.71 	0.052140 	4929 	0.051665
37.75 	0.048381 	4940 	0.047551
37.79 	0.052333 	4930 	0.051739
37.83 	0.055081 	4920 	0.054367
37.87 	0.047176 	4939 	0.046938
37.91 	0.049087 	4930 	0.048493
37.95 	0.059134 	4921 	0.058658
37.99 	0.055375 	4912 	0.054301
38.03 	0.056020 	4909 	0.055184
38.07 	0.051334 	4909 	0.050618
38.11 	0.055319 	4935 	0.054844
38.15 	0.057747 	4918 	0.056675
38.19 	0.054361 	4930 	0.053391
38.23 	0.063994 	4938 	0.062550
38.27 	0.057809 	4930 	0.057334
38.31 	0.062310 	4927 	0.060388
38.35 	0.071429 	4928 	0.069646
38.39 	0.072520 	4909 	0.070849
38.43 	0.069976 	4916 	0.069022
38.47 	0.079071 	4907 	0.077399
38.51 	0.077859 	4932 	0.075959
38.55 	0.070097 	4936 	0.068673
38.59 	0.068237 	4924 	0.067167
38.63 	0.072502 	4924 	0.071154
38.67 	0.068260 	4937 	0.067311
38.71 	0.058083 	4924 	0.057131
38.75 	0.055612 	4927 	0.054285
38.79 	0.056344 	4934 	0.055394
38.83 	0.057735 	4919 	0.057021
38.87 	0.052331 	4911 	0.051854
38.91 	0.049969 	4903 	0.049730
38.95 	0.053274 	4918 	0.052678
38.99 	0.044967 	4937 	0.044136
39.03 	0.046210 	4934 	0.045735
39.07 	0.047725 	4924 	0.046893
39.11 	0.045224 	4931 	0.044373
39.15 	0.045575 	4915 	0.044979
39.19 	0.050031 	4917 	0.049554
39.23 	0.043858 	4925 	0.043263
39.27 	0.049491 	4910 	0.048775
39.31 	0.038288 	4884 	0.037669
39.35 	0.048227 	4935 	0.047396
39.39 	0.047880 	4929 	0.047523
39.43 	0.040138 	4933 	0.039663
39.47 	0.040219 	4923 	0.039505
39.51 	0.049553 	4924 	0.049196
39.55 	0.044115 	4919 	0.043519
39.59 	0.045195 	4912 	0.044957
39.63 	0.041853 	4922 	0.041258
39.67 	0.037859 	4913 	0.037501
39.71 	0.040449 	4895 	0.040210
39.75 	0.041193 	4928 	0.040480
39.79 	0.037556 	4926 	0.037318
39.83 	0.044791 	4934 	0.044673
39.87 	0.040406 	4925 	0.040049
39.91 	0.048964 	4922 	0.048607
39.95 	0.045168 	4915 	0.044214
39.99 	0.042174 	4932 	0.041580
40.03 	0.035714 	4928 	0.035595
40.07 	0.039001 	4923 	0.038763
40.11 	0.042514 	4916 	0.042157
40.15 	0.042947 	4913 	0.042590
40.19 	0.039968 	4929 	0.038898
40.23 	0.045418 	4932 	0.044824
40.27 	0.040105 	4937 	0.039868
40.31 	0.041304 	4939 	0.040948
40.35 	0.044928 	4919 	0.044451
40.39 	0.037518 	4931 	0.037280
40.43 	0.044088 	4922 	0.043612
40.47 	0.043920 	4918 	0.042848
40.51 	0.039415 	4922 	0.038939
40.55 	0.041157 	4908 	0.040799
40.59 	0.044359 	4937 	0.043884
40.63 	0.038540 	4930 	0.038302
40.67 	0.040146 	4932 	0.039908
40.71 	0.041565 	4932 	0.040971
40.75 	0.038937 	4931 	0.038581
40.79 	0.044070 	4924 	0.043237
40.83 	0.041599 	4928 	0.041005
40.87 	0.044034 	4928 	0.043559
40.91 	0.038391 	4923 	0.038034
40.95 	0.048646 	4913 	0.047931
40.99 	0.041836 	4924 	0.041222
41.03 	0.045464 	4905 	0.044867
41.07 	0.039554 	4930 	0.038960
41.11 	0.038501 	4935 	0.038263
41.15 	0.039870 	4941 	0.039633
41.19 	0.038134 	4930 	0.037421
41.23 	0.041101 	4939 	0.040983
41.27 	0.042385 	4931 	0.042029
41.31 	0.042165 	4933 	0.041690
41.35 	0.044957 	4938 	0.044483
41.39 	0.040138 	4933 	0.039663
41.43 	0.039968 	4929 	0.039492
41.47 	0.043240 	4926 	0.042764
41.51 	0.037045 	4940 	0.036689
41.55 	0.039108 	4935 	0.038515
41.59 	0.040138 	4933 	0.040019
41.63 	0.047590 	4938 	0.047234
41.67 	0.037045 	4940 	0.036807
41.71 	0.038914 	4934 	0.038320
41.75 	0.038750 	4929 	0.038513
41.79 	0.039846 	4944 	0.039728
41.83 	0.036932 	4928 	0.036694
41.87 	0.034650 	4935 	0.034650
41.91 	0.037885 	4936 	0.037292
41.95 	0.035895 	4931 	0.035895
41.99 	0.037717 	4905 	0.036861
42.03 	0.038267 	4939 	0.037437
42.07 	0.038890 	4937 	0.038534
42.11 	0.042265 	4945 	0.041436
42.15 	0.040300 	4938 	0.039944
42.19 	0.037490 	4908 	0.037251
42.23 	0.035773 	4892 	0.035413
42.27 	0.039393 	4874 	0.037830
42.31 	0.035633 	4855 	0.035513
42.35 	0.037826 	4838 	0.037462
42.39 	0.039550 	4804 	0.038941
42.43 	0.038606 	4792 	0.037486
42.47 	0.034627 	4765 	0.033993
42.51 	0.039216 	4743 	0.038454
42.55 	0.037596 	4708 	0.037222
42.59 	0.036371 	4729 	0.036124
42.63 	0.038012 	4709 	0.037619
42.67 	0.036507 	4684 	0.036132
42.71 	0.038387 	4663 	0.037885
42.75 	0.039853 	4617 	0.038965
42.79 	0.032519 	4582 	0.032263
42.83 	0.041005 	4536 	0.040101
42.87 	0.035341 	4499 	0.035211
42.91 	0.035233 	4456 	0.034576
42.95 	0.039629 	4416 	0.039231
42.99 	0.034664 	4385 	0.034263
43.03 	0.038541 	4333 	0.038136
43.07 	0.037709 	4296 	0.037028
43.11 	0.039953 	4255 	0.038852
43.15 	0.033286 	4206 	0.032868
43.19 	0.033143 	4194 	0.033003
43.23 	0.040202 	4154 	0.039779
43.27 	0.040195 	4105 	0.039196
43.31 	0.036529 	4079 	0.036529
43.35 	0.035466 	4032 	0.035176
43.39 	0.031984 	4002 	0.031691
43.43 	0.040404 	3960 	0.039960
43.47 	0.039531 	3921 	0.038933
43.51 	0.035079 	3877 	0.035079
43.55 	0.038799 	2964 	0.038601
43.59 	0.042383 	1746 	0.042047
43.63 	0.040959 	1001 	0.040959
43.67 	0.047809 	502 	0.047809
43.71 	0.016736 	239 	0.016736
43.75 	0.000000 	16 	0.000000