Folder: Bessy-II-KMC-II-insitu-sin2psi/Example_Data (part 109)

File: 25SC_s1_0044.000.dat
#F C:\frames\spec\25SC_s1_0044.000
#C title =s:44 frm:0 25SC_s1
#C wavelength =0.15406

#S 1  fr_average C:\frames\spec\25SC_s1_0044.000 C:\win32app\speccom\mask.axs chi 0 180 0 360 0.02
#C 2 theta =0.000000 to 180 deg
#C   q   =0.000000 to 81.568 nm^-1
#C  chi  =0.000000 to 360 deg
#C collumns:
#C  1 position (2theta or chi in degrees)
#C  2 average intensity (sum of all counts in the region divided with number of pixels)
#C  3 Number of pixels in region)
#C  4 error (sum of sqrt(intensity) for all pixels divided by number)
#N 4
#L TTh  Int  N_pix  Err
32.99 	0.049180 	61 	0.049180
33.03 	0.055356 	1391 	0.054935
33.07 	0.065366 	2050 	0.064509
33.11 	0.055060 	2579 	0.054152
33.15 	0.062021 	2999 	0.060653
33.19 	0.063136 	3342 	0.062435
33.23 	0.056202 	3523 	0.055204
33.27 	0.058678 	3630 	0.057871
33.31 	0.054645 	3660 	0.053524
33.35 	0.070384 	3694 	0.069274
33.39 	0.056315 	3729 	0.055530
33.43 	0.050253 	3761 	0.049630
33.47 	0.062401 	3798 	0.061476
33.51 	0.060550 	3815 	0.059783
33.55 	0.062972 	3843 	0.061575
33.59 	0.057732 	3880 	0.056977
33.63 	0.060219 	3919 	0.058850
33.67 	0.056146 	3954 	0.055405
33.71 	0.061887 	3975 	0.061150
33.75 	0.058015 	3999 	0.057282
33.79 	0.059886 	4041 	0.057857
33.83 	0.055309 	4050 	0.054296
33.87 	0.058380 	4111 	0.057810
33.91 	0.061943 	4149 	0.061237
33.95 	0.070318 	4181 	0.068193
33.99 	0.063810 	4200 	0.062833
34.03 	0.059614 	4244 	0.058371
34.07 	0.051546 	4268 	0.050723
34.11 	0.056718 	4302 	0.055901
34.15 	0.059571 	4331 	0.058489
34.19 	0.058918 	4362 	0.057978
34.23 	0.056681 	4393 	0.056148
34.27 	0.067164 	4422 	0.066502
34.31 	0.061014 	4458 	0.060094
34.35 	0.050178 	4484 	0.049656
34.39 	0.058196 	4502 	0.057676
34.43 	0.062789 	4539 	0.061219
34.47 	0.053789 	4592 	0.053279
34.51 	0.054928 	4606 	0.054165
34.55 	0.054275 	4643 	0.053392
34.59 	0.056471 	4675 	0.055719
34.63 	0.055414 	4710 	0.054399
34.67 	0.068340 	4741 	0.067104
34.71 	0.065044 	4766 	0.063672
34.75 	0.052829 	4808 	0.052098
34.79 	0.053690 	4824 	0.052476
34.83 	0.052448 	4862 	0.051484
34.87 	0.060394 	4868 	0.059432
34.91 	0.057149 	4882 	0.055709
34.95 	0.059918 	4890 	0.058840
34.99 	0.057178 	4897 	0.055862
35.03 	0.061097 	4943 	0.060148
35.07 	0.062146 	4940 	0.060960
35.11 	0.057611 	4947 	0.056525
35.15 	0.053069 	4937 	0.051645
35.19 	0.059288 	4942 	0.058221
35.23 	0.061881 	4945 	0.061051
35.27 	0.061439 	4948 	0.060729
35.31 	0.060004 	4933 	0.059054
35.35 	0.062121 	4942 	0.061172
35.39 	0.054601 	4945 	0.053890
35.43 	0.053720 	4933 	0.052394
35.47 	0.055770 	4931 	0.054700
35.51 	0.058668 	4926 	0.057598
35.55 	0.058645 	4945 	0.057934
35.59 	0.053185 	4945 	0.052237
35.63 	0.056443 	4943 	0.055732
35.67 	0.058681 	4942 	0.057377
35.71 	0.059348 	4937 	0.058399
35.75 	0.060028 	4931 	0.059316
35.79 	0.059408 	4932 	0.058695
35.83 	0.060857 	4946 	0.059318
35.87 	0.058704 	4923 	0.057633
35.91 	0.051756 	4927 	0.051280
35.95 	0.060199 	4917 	0.059365
35.99 	0.054667 	4939 	0.053955
36.03 	0.054623 	4943 	0.052944
36.07 	0.056894 	4939 	0.056064
36.11 	0.055589 	4929 	0.054995
36.15 	0.051022 	4939 	0.049936
36.19 	0.061943 	4940 	0.060639
36.23 	0.055319 	4935 	0.054469
36.27 	0.061523 	4925 	0.060571
36.31 	0.058847 	4928 	0.057064
36.35 	0.061879 	4929 	0.061284
36.39 	0.061979 	4921 	0.061146
36.43 	0.056209 	4928 	0.054288
36.47 	0.057131 	4936 	0.056182
36.51 	0.056558 	4933 	0.055964
36.55 	0.056424 	4927 	0.055473
36.59 	0.053857 	4939 	0.052908
36.63 	0.051511 	4931 	0.050560
36.67 	0.056389 	4930 	0.055795
36.71 	0.057509 	4921 	0.056675
36.75 	0.058252 	4944 	0.057305
36.79 	0.062995 	4921 	0.061567
36.83 	0.063479 	4915 	0.062645
36.87 	0.053196 	4944 	0.052366
36.91 	0.055050 	4941 	0.054082
36.95 	0.058180 	4933 	0.056636
36.99 	0.059574 	4935 	0.058981
37.03 	0.056864 	4924 	0.055556
37.07 	0.057548 	4935 	0.056005
37.11 	0.060385 	4935 	0.059673
37.15 	0.060297 	4909 	0.059581
37.19 	0.064365 	4925 	0.062819
37.23 	0.062424 	4918 	0.061828
37.27 	0.055170 	4894 	0.054451
37.31 	0.053495 	4935 	0.053021
37.35 	0.055488 	4938 	0.054539
37.39 	0.051511 	4931 	0.049966
37.43 	0.056772 	4932 	0.055703
37.47 	0.057415 	4929 	0.056940
37.51 	0.062842 	4933 	0.061061
37.55 	0.053550 	4930 	0.052480
37.59 	0.053306 	4915 	0.052472
37.63 	0.058752 	4919 	0.057085
37.67 	0.056281 	4904 	0.055206
37.71 	0.057415 	4929 	0.056346
37.75 	0.058300 	4940 	0.057351
37.79 	0.053753 	4930 	0.053158
37.83 	0.060976 	4920 	0.059408
37.87 	0.058919 	4939 	0.058326
37.91 	0.057404 	4930 	0.056928
37.95 	0.057102 	4921 	0.056626
37.99 	0.057614 	4912 	0.057018
38.03 	0.060501 	4909 	0.059546
38.07 	0.063353 	4909 	0.061921
38.11 	0.058156 	4935 	0.057068
38.15 	0.057137 	4918 	0.056303
38.19 	0.059432 	4930 	0.058719
38.23 	0.073917 	4938 	0.072849
38.27 	0.070791 	4930 	0.069841
38.31 	0.066775 	4927 	0.064715
38.35 	0.074472 	4928 	0.073284
38.39 	0.078224 	4909 	0.076314
38.43 	0.081367 	4916 	0.078269
38.47 	0.083350 	4907 	0.081082
38.51 	0.082522 	4932 	0.081097
38.55 	0.082253 	4936 	0.080354
38.59 	0.077985 	4924 	0.076677
38.63 	0.071690 	4924 	0.070381
38.67 	0.068665 	4937 	0.067360
38.71 	0.072299 	4924 	0.070495
38.75 	0.062716 	4927 	0.061626
38.79 	0.058573 	4934 	0.057505
38.83 	0.052246 	4919 	0.051651
38.87 	0.054368 	4911 	0.053771
38.91 	0.053845 	4903 	0.052889
38.95 	0.052257 	4918 	0.051304
38.99 	0.042536 	4937 	0.042299
39.03 	0.050466 	4934 	0.049991
39.07 	0.053412 	4924 	0.052222
39.11 	0.052119 	4931 	0.051268
39.15 	0.051068 	4915 	0.050115
39.19 	0.044539 	4917 	0.044182
39.23 	0.046294 	4925 	0.045918
39.27 	0.046029 	4910 	0.045293
39.31 	0.047912 	4884 	0.047552
39.35 	0.040122 	4935 	0.039647
39.39 	0.049300 	4929 	0.048230
39.43 	0.047436 	4933 	0.047198
39.47 	0.051188 	4923 	0.050355
39.51 	0.047319 	4924 	0.046962
39.55 	0.050213 	4919 	0.049380
39.59 	0.045195 	4912 	0.044718
39.63 	0.050386 	4922 	0.049315
39.67 	0.042133 	4913 	0.041656
39.71 	0.043922 	4895 	0.043324
39.75 	0.048904 	4928 	0.047834
39.79 	0.047706 	4926 	0.047111
39.83 	0.044386 	4934 	0.043417
39.87 	0.039391 	4925 	0.038677
39.91 	0.043478 	4922 	0.042645
39.95 	0.048016 	4915 	0.047420
39.99 	0.047242 	4932 	0.046886
40.03 	0.044643 	4928 	0.043930
40.07 	0.045298 	4923 	0.044822
40.11 	0.041497 	4916 	0.040524
40.15 	0.044372 	4913 	0.043895
40.19 	0.038750 	4929 	0.038631
40.23 	0.043390 	4932 	0.042915
40.27 	0.041523 	4937 	0.040930
40.31 	0.040292 	4939 	0.039580
40.35 	0.045944 	4919 	0.045468
40.39 	0.041168 	4931 	0.040931
40.43 	0.043072 	4922 	0.042834
40.47 	0.046157 	4918 	0.045085
40.51 	0.048761 	4922 	0.048146
40.55 	0.039120 	4908 	0.038762
40.59 	0.040510 	4937 	0.039917
40.63 	0.039757 	4930 	0.039281
40.67 	0.036496 	4932 	0.036140
40.71 	0.045012 	4932 	0.044656
40.75 	0.037112 	4931 	0.036993
40.79 	0.045491 	4924 	0.044659
40.83 	0.040990 	4928 	0.040515
40.87 	0.045049 	4928 	0.044217
40.91 	0.042657 	4923 	0.042062
40.95 	0.038469 	4913 	0.037973
40.99 	0.033712 	4924 	0.033356
41.03 	0.038940 	4905 	0.038701
41.07 	0.041176 	4930 	0.040820
41.11 	0.037690 	4935 	0.037453
41.15 	0.042906 	4941 	0.042551
41.19 	0.047059 	4930 	0.046227
41.23 	0.047176 	4939 	0.046938
41.27 	0.041574 	4931 	0.041099
41.31 	0.045003 	4933 	0.044409
41.35 	0.042122 	4938 	0.041272
41.39 	0.048855 	4933 	0.048142
41.43 	0.043011 	4929 	0.042773
41.47 	0.038571 	4926 	0.038214
41.51 	0.045142 	4940 	0.044430
41.55 	0.042756 	4935 	0.041925
41.59 	0.038313 	4933 	0.038195
41.63 	0.037870 	4938 	0.037395
41.67 	0.035020 	4940 	0.034783
41.71 	0.037900 	4934 	0.037663
41.75 	0.037127 	4929 	0.036890
41.79 	0.042071 	4944 	0.041597
41.83 	0.043831 	4928 	0.043475
41.87 	0.042148 	4935 	0.042029
41.91 	0.039303 	4936 	0.038947
41.95 	0.039140 	4931 	0.038784
41.99 	0.035474 	4905 	0.035116
42.03 	0.043531 	4939 	0.042938
42.07 	0.038282 	4937 	0.037926
42.11 	0.038220 	4945 	0.038102
42.15 	0.036047 	4938 	0.035928
42.19 	0.035860 	4908 	0.035502
42.23 	0.037612 	4892 	0.037493
42.27 	0.042470 	4874 	0.041749
42.31 	0.035633 	4855 	0.035271
42.35 	0.039686 	4838 	0.039323
42.39 	0.037469 	4804 	0.037225
42.43 	0.034432 	4792 	0.034310
42.47 	0.041343 	4765 	0.040974
42.51 	0.039427 	4743 	0.039056
42.55 	0.043543 	4708 	0.042921
42.59 	0.037006 	4729 	0.036139
42.63 	0.039924 	4709 	0.039550
42.67 	0.042272 	4684 	0.041896
42.71 	0.039245 	4663 	0.038994
42.75 	0.035954 	4617 	0.035700
42.79 	0.036229 	4582 	0.035589
42.83 	0.044974 	4536 	0.044328
42.87 	0.036008 	4499 	0.035617
42.91 	0.037702 	4456 	0.037439
42.95 	0.033514 	4416 	0.032851
42.99 	0.038312 	4385 	0.037778
43.03 	0.039926 	4333 	0.039791
43.07 	0.035149 	4296 	0.034604
43.11 	0.044888 	4255 	0.044613
43.15 	0.038516 	4206 	0.038099
43.19 	0.034812 	4194 	0.034253
43.23 	0.037313 	4154 	0.037313
43.27 	0.041657 	4105 	0.040943
43.31 	0.039470 	4079 	0.039327
43.35 	0.039435 	4032 	0.038708
43.39 	0.033483 	4002 	0.033044
43.43 	0.037121 	3960 	0.036973
43.47 	0.034940 	3921 	0.034641
43.51 	0.040237 	3877 	0.039482
43.55 	0.042173 	2964 	0.041382
43.59 	0.037801 	1746 	0.037801
43.63 	0.038961 	1001 	0.038961
43.67 	0.037849 	502 	0.037849
43.71 	0.041841 	239 	0.041841
43.75 	0.062500 	16 	0.062500

File: 25SC_s1_0044.001.dat
#F C:\frames\spec\25SC_s1_0044.001
#C title =s:44 frm:1 25SC_s1
#C wavelength =0.15406

#S 1  fr_average C:\frames\spec\25SC_s1_0044.001 C:\win32app\speccom\mask.axs chi 0 180 0 360 0.02
#C 2 theta =0.000000 to 180 deg
#C   q   =0.000000 to 81.568 nm^-1
#C  chi  =0.000000 to 360 deg
#C collumns:
#C  1 position (2theta or chi in degrees)
#C  2 average intensity (sum of all counts in the region divided with number of pixels)
#C  3 Number of pixels in region)
#C  4 error (sum of sqrt(intensity) for all pixels divided by number)
#N 4
#L TTh  Int  N_pix  Err
32.99 	0.065574 	61 	0.065574
33.03 	0.061826 	1391 	0.060142
33.07 	0.065854 	2050 	0.065282
33.11 	0.061264 	2579 	0.059901
33.15 	0.065022 	2999 	0.063654
33.19 	0.055955 	3342 	0.055078
33.23 	0.059608 	3523 	0.059109
33.27 	0.053994 	3630 	0.052516
33.31 	0.058470 	3660 	0.057990
33.35 	0.059285 	3694 	0.057991
33.39 	0.066506 	3729 	0.065406
33.43 	0.056634 	3761 	0.055544
33.47 	0.056609 	3798 	0.055838
33.51 	0.058978 	3815 	0.057749
33.55 	0.060370 	3843 	0.059607
33.59 	0.058763 	3880 	0.057857
33.63 	0.057923 	3919 	0.057026
33.67 	0.054628 	3954 	0.054036
33.71 	0.060629 	3975 	0.059450
33.75 	0.056514 	3999 	0.056075
33.79 	0.057412 	4041 	0.056977
33.83 	0.056049 	4050 	0.055013
33.87 	0.061542 	4111 	0.059975
33.91 	0.058568 	4149 	0.058004
33.95 	0.060273 	4181 	0.059572
33.99 	0.053571 	4200 	0.053292
34.03 	0.060085 	4244 	0.059119
34.07 	0.059747 	4268 	0.058100
34.11 	0.059740 	4302 	0.059467
34.15 	0.061187 	4331 	0.060375
34.19 	0.048372 	4362 	0.048238
34.23 	0.062600 	4393 	0.060999
34.27 	0.058571 	4422 	0.056849
34.31 	0.059444 	4458 	0.058392
34.35 	0.065343 	4484 	0.064560
34.39 	0.061972 	4502 	0.061322
34.43 	0.053536 	4539 	0.052762
34.47 	0.052918 	4592 	0.052025
34.51 	0.057099 	4606 	0.056209
34.55 	0.061813 	4643 	0.060405
34.59 	0.055615 	4675 	0.055364
34.63 	0.057537 	4710 	0.057040
34.67 	0.058848 	4741 	0.057736
34.71 	0.060428 	4766 	0.058544
34.75 	0.053037 	4808 	0.052184
34.79 	0.057629 	4824 	0.057264
34.83 	0.055944 	4862 	0.054619
34.87 	0.049096 	4868 	0.048615
34.91 	0.058173 	4882 	0.056833
34.95 	0.057055 	4890 	0.055957
34.99 	0.058607 	4897 	0.057890
35.03 	0.058467 	4943 	0.056689
35.07 	0.055263 	4940 	0.054077
35.11 	0.059834 	4947 	0.058413
35.15 	0.063399 	4937 	0.062924
35.19 	0.049777 	4942 	0.048948
35.23 	0.058443 	4945 	0.057851
35.27 	0.058205 	4948 	0.057732
35.31 	0.055544 	4933 	0.054476
35.35 	0.056455 	4942 	0.055388
35.39 	0.064712 	4945 	0.063527
35.43 	0.058585 	4933 	0.058229
35.47 	0.059623 	4931 	0.058791
35.51 	0.058262 	4926 	0.057787
35.55 	0.052174 	4945 	0.051108
35.59 	0.056016 	4945 	0.055542
35.63 	0.059478 	4943 	0.058530
35.67 	0.057062 	4942 	0.055995
35.71 	0.055702 	4937 	0.055346
35.75 	0.055567 	4931 	0.054735
35.79 	0.050689 	4932 	0.049739
35.83 	0.053579 	4946 	0.052750
35.87 	0.062970 	4923 	0.062236
35.91 	0.056221 	4927 	0.055032
35.95 	0.057962 	4917 	0.057486
35.99 	0.056692 	4939 	0.055743
36.03 	0.055634 	4943 	0.054686
36.07 	0.056692 	4939 	0.055624
36.11 	0.058227 	4929 	0.057751
36.15 	0.057097 	4939 	0.056148
36.19 	0.056073 	4940 	0.055006
36.23 	0.054509 	4935 	0.053559
36.27 	0.059898 	4925 	0.058590
36.31 	0.050731 	4928 	0.049780
36.35 	0.055184 	4929 	0.054233
36.39 	0.057915 	4921 	0.056467
36.43 	0.062500 	4928 	0.061311
36.47 	0.055105 	4936 	0.053800
36.51 	0.060004 	4933 	0.058223
36.55 	0.062716 	4927 	0.062002
36.59 	0.057906 	4939 	0.056582
36.63 	0.052728 	4931 	0.051777
36.67 	0.055578 	4930 	0.055222
36.71 	0.060354 	4921 	0.059877
36.75 	0.052184 	4944 	0.051336
36.79 	0.052225 	4921 	0.051273
36.83 	0.056968 	4915 	0.056115
36.87 	0.052994 	4944 	0.052283
36.91 	0.052419 	4941 	0.051213
36.95 	0.056963 	4933 	0.056013
36.99 	0.052888 	4935 	0.051938
37.03 	0.048335 	4924 	0.047740
37.07 	0.057548 	4935 	0.056361
37.11 	0.059980 	4935 	0.058892
37.15 	0.057242 	4909 	0.056406
37.19 	0.056041 	4925 	0.055684
37.23 	0.062424 	4918 	0.061352
37.27 	0.058235 	4894 	0.057516
37.31 	0.051064 	4935 	0.050708
37.35 	0.060753 	4938 	0.060160
37.39 	0.053133 	4931 	0.052183
37.43 	0.049878 	4932 	0.048809
37.47 	0.059241 	4929 	0.057201
37.51 	0.060409 	4933 	0.059222
37.55 	0.054361 	4930 	0.053886
37.59 	0.055341 	4915 	0.054030
37.63 	0.056312 	4919 	0.054506
37.67 	0.061582 	4904 	0.060507
37.71 	0.057010 	4929 	0.056296
37.75 	0.052632 	4940 	0.051920
37.79 	0.055781 	4930 	0.055424
37.83 	0.056911 	4920 	0.056077
37.87 	0.057704 	4939 	0.056755
37.91 	0.057809 	4930 	0.056859
37.95 	0.050193 	4921 	0.049479
37.99 	0.054764 	4912 	0.053810
38.03 	0.057038 	4909 	0.056441
38.07 	0.061112 	4909 	0.059800
38.11 	0.060993 	4935 	0.059668
38.15 	0.055510 	4918 	0.054181
38.19 	0.056389 	4930 	0.055558
38.23 	0.061766 	4938 	0.060916
38.27 	0.070183 	4930 	0.068124
38.31 	0.065760 	4927 	0.064690
38.35 	0.071834 	4928 	0.070626
38.39 	0.070890 	4909 	0.068961
38.43 	0.076688 	4916 	0.075378
38.47 	0.074791 	4907 	0.073000
38.51 	0.071776 	4932 	0.069995
38.55 	0.080227 	4936 	0.078328
38.59 	0.064785 	4924 	0.063119
38.63 	0.069456 	4924 	0.067533
38.67 	0.058335 	4937 	0.057504
38.71 	0.069659 	4924 	0.068469
38.75 	0.057236 	4927 	0.056760
38.79 	0.054722 	4934 	0.054129
38.83 	0.055092 	4919 	0.054259
38.87 	0.053757 	4911 	0.052803
38.91 	0.049358 	4903 	0.048760
38.95 	0.046564 	4918 	0.045968
38.99 	0.045169 	4937 	0.044695
39.03 	0.048237 	4934 	0.047287
39.07 	0.043664 	4924 	0.043188
39.11 	0.044007 	4931 	0.043176
39.15 	0.053103 	4915 	0.052626
39.19 	0.048403 	4917 	0.047808
39.23 	0.047107 	4925 	0.046631
39.27 	0.042974 	4910 	0.042616
39.31 	0.041974 	4884 	0.041614
39.35 	0.042553 	4935 	0.041604
39.39 	0.047474 	4929 	0.047118
39.43 	0.046219 	4933 	0.045863
39.47 	0.043876 	4923 	0.043519
39.51 	0.046101 	4924 	0.045863
39.55 	0.050417 	4919 	0.049583
39.59 	0.045603 	4912 	0.045126
39.63 	0.045510 	4922 	0.044915
39.67 	0.047832 	4913 	0.047117
39.71 	0.049438 	4895 	0.048960
39.75 	0.047687 	4928 	0.046973
39.79 	0.051157 	4926 	0.050563
39.83 	0.049250 	4934 	0.048538
39.87 	0.041421 	4925 	0.041302
39.91 	0.045104 	4922 	0.044866
39.95 	0.042726 	4915 	0.042369
39.99 	0.047040 	4932 	0.046308
40.03 	0.041802 	4928 	0.041445
40.07 	0.043673 	4923 	0.043435
40.11 	0.047803 	4916 	0.047446
40.15 	0.036637 	4913 	0.036041
40.19 	0.048691 	4929 	0.047246
40.23 	0.040349 	4932 	0.039992
40.27 	0.043751 	4937 	0.043039
40.31 	0.044138 	4939 	0.043664
40.35 	0.040862 	4919 	0.040743
40.39 	0.040965 	4931 	0.040728
40.43 	0.041243 	4922 	0.040886
40.47 	0.044734 	4918 	0.043900
40.51 	0.049777 	4922 	0.049300
40.55 	0.039324 	4908 	0.039204
40.59 	0.038282 	4937 	0.037808
40.63 	0.041785 	4930 	0.041310
40.67 	0.037105 	4932 	0.036392
40.71 	0.037105 	4932 	0.036748
40.75 	0.039140 	4931 	0.038546
40.79 	0.042851 	4924 	0.042494
40.83 	0.040787 	4928 	0.039955
40.87 	0.040381 	4928 	0.040025
40.91 	0.038797 	4923 	0.038084
40.95 	0.045797 	4913 	0.045320
40.99 	0.044273 	4924 	0.043678
41.03 	0.041998 	4905 	0.041640
41.07 	0.039554 	4930 	0.039316
41.11 	0.038906 	4935 	0.038906
41.15 	0.036430 	4941 	0.036430
41.19 	0.039959 	4930 	0.039603
41.23 	0.040494 	4939 	0.039427
41.27 	0.040560 	4931 	0.040085
41.31 	0.036286 	4933 	0.036286
41.35 	0.039490 	4938 	0.039134
41.39 	0.041354 	4933 	0.040642
41.43 	0.036519 	4929 	0.036162
41.47 	0.042225 	4926 	0.041987
41.51 	0.035020 	4940 	0.034902
41.55 	0.040324 	4935 	0.039612
41.59 	0.036084 	4933 	0.035609
41.63 	0.042122 	4938 	0.041292
41.67 	0.043927 	4940 	0.043690
41.71 	0.038306 	4934 	0.038049
41.75 	0.038953 	4929 	0.038834
41.79 	0.041464 	4944 	0.040990
41.83 	0.041193 	4928 	0.040718
41.87 	0.038095 	4935 	0.037383
41.91 	0.039100 	4936 	0.038626
41.95 	0.038329 	4931 	0.037854
41.99 	0.042406 	4905 	0.041450
42.03 	0.037052 	4939 	0.036578
42.07 	0.034636 	4937 	0.034162
42.11 	0.035389 	4945 	0.035152
42.15 	0.040097 	4938 	0.039504
42.19 	0.043399 	4908 	0.043160
42.23 	0.040883 	4892 	0.040045
42.27 	0.043906 	4874 	0.043185
42.31 	0.036251 	4855 	0.036010
42.35 	0.038859 	4838 	0.038011
42.39 	0.037677 	4804 	0.037189
42.43 	0.040484 	4792 	0.039731
42.47 	0.040504 	4765 	0.040012
42.51 	0.037529 	4743 	0.037282
42.55 	0.037383 	4708 	0.036388
42.59 	0.036794 	4729 	0.036547
42.63 	0.037163 	4709 	0.036790
42.67 	0.038215 	4684 	0.038215
42.71 	0.035814 	4663 	0.035688
42.75 	0.039853 	4617 	0.039345
42.79 	0.033392 	4582 	0.033264
42.83 	0.040564 	4536 	0.039919
42.87 	0.032674 	4499 	0.032544
42.91 	0.042864 	4456 	0.042338
42.95 	0.037364 	4416 	0.037099
42.99 	0.034664 	4385 	0.034129
43.03 	0.031156 	4333 	0.031021
43.07 	0.033054 	4296 	0.032350
43.11 	0.042773 	4255 	0.042223
43.15 	0.040656 	4206 	0.040238
43.19 	0.039580 	4194 	0.039022
43.23 	0.037554 	4154 	0.037131
43.27 	0.037759 	4105 	0.036760
43.31 	0.034812 	4079 	0.034382
43.35 	0.035962 	4032 	0.035817
43.39 	0.041229 	4002 	0.040498
43.43 	0.034596 	3960 	0.034300
43.47 	0.041571 	3921 	0.040973
43.51 	0.035337 	3877 	0.034883
43.55 	0.029015 	2964 	0.028620
43.59 	0.034937 	1746 	0.034937
43.63 	0.037962 	1001 	0.037962
43.67 	0.037849 	502 	0.037849
43.71 	0.033473 	239 	0.033473
43.75 	0.062500 	16 	0.062500