Folder: Bessy-II-KMC-II-insitu-sin2psi/Example_Data (part 35)

File: 25SC_s1_0014.002.dat
#F C:\frames\spec\25SC_s1_0014.002
#C title =s:14 frm:2 25SC_s1
#C wavelength =0.15406

#S 1  fr_average C:\frames\spec\25SC_s1_0014.002 C:\win32app\speccom\mask.axs chi 0 180 0 360 0.02
#C 2 theta =0.000000 to 180 deg
#C   q   =0.000000 to 81.568 nm^-1
#C  chi  =0.000000 to 360 deg
#C collumns:
#C  1 position (2theta or chi in degrees)
#C  2 average intensity (sum of all counts in the region divided with number of pixels)
#C  3 Number of pixels in region)
#C  4 error (sum of sqrt(intensity) for all pixels divided by number)
#N 4
#L TTh  Int  N_pix  Err
32.99 	0.032787 	61 	0.032787
33.03 	0.056794 	1391 	0.056373
33.07 	0.063415 	2050 	0.062557
33.11 	0.061652 	2579 	0.060289
33.15 	0.060687 	2999 	0.059906
33.19 	0.048474 	3342 	0.048299
33.23 	0.065285 	3523 	0.063955
33.27 	0.057025 	3630 	0.056057
33.31 	0.059563 	3660 	0.058603
33.35 	0.059015 	3694 	0.057746
33.39 	0.058997 	3729 	0.057897
33.43 	0.058229 	3761 	0.056827
33.47 	0.053449 	3798 	0.052678
33.51 	0.060550 	3815 	0.058401
33.55 	0.059329 	3843 	0.058414
33.59 	0.055928 	3880 	0.054091
33.63 	0.064047 	3919 	0.062851
33.67 	0.056146 	3954 	0.054516
33.71 	0.058616 	3975 	0.057585
33.75 	0.060515 	3999 	0.059636
33.79 	0.063846 	4041 	0.062251
33.83 	0.062963 	4050 	0.061517
33.87 	0.058137 	4111 	0.057424
33.91 	0.056881 	4149 	0.055870
33.95 	0.058120 	4181 	0.056859
33.99 	0.061905 	4200 	0.060650
34.03 	0.057493 	4244 	0.056090
34.07 	0.055061 	4268 	0.054649
34.11 	0.054393 	4302 	0.053576
34.15 	0.055645 	4331 	0.055104
34.19 	0.055938 	4362 	0.055266
34.23 	0.057136 	4393 	0.056203
34.27 	0.060832 	4422 	0.059618
34.31 	0.060117 	4458 	0.058408
34.35 	0.057538 	4484 	0.056493
34.39 	0.054865 	4502 	0.054214
34.43 	0.053536 	4539 	0.052891
34.47 	0.058798 	4592 	0.057650
34.51 	0.056448 	4606 	0.055283
34.55 	0.061167 	4643 	0.059906
34.59 	0.059037 	4675 	0.058662
34.63 	0.062208 	4710 	0.060840
34.67 	0.057794 	4741 	0.056311
34.71 	0.057700 	4766 	0.056717
34.75 	0.057820 	4808 	0.056724
34.79 	0.060323 	4824 	0.058725
34.83 	0.056767 	4862 	0.055923
34.87 	0.061627 	4868 	0.060544
34.91 	0.061041 	4882 	0.060081
34.95 	0.062372 	4890 	0.061534
34.99 	0.064734 	4897 	0.064016
35.03 	0.060490 	4943 	0.058811
35.07 	0.055263 	4940 	0.054433
35.11 	0.060441 	4947 	0.059612
35.15 	0.058132 	4937 	0.057065
35.19 	0.055645 	4942 	0.054816
35.23 	0.061072 	4945 	0.059868
35.27 	0.060226 	4948 	0.059753
35.31 	0.055950 	4933 	0.054762
35.35 	0.060299 	4942 	0.059470
35.39 	0.055814 	4945 	0.055222
35.43 	0.062031 	4933 	0.061319
35.47 	0.060231 	4931 	0.058212
35.51 	0.055623 	4926 	0.054791
35.55 	0.057027 	4945 	0.056435
35.59 	0.057836 	4945 	0.057125
35.63 	0.061097 	4943 	0.059418
35.67 	0.056253 	4942 	0.055067
35.71 	0.059145 	4937 	0.058552
35.75 	0.059826 	4931 	0.058400
35.79 	0.057786 	4932 	0.056479
35.83 	0.060453 	4946 	0.059505
35.87 	0.058298 	4923 	0.057465
35.91 	0.057642 	4927 	0.056928
35.95 	0.063860 	4917 	0.063026
35.99 	0.063576 	4939 	0.062508
36.03 	0.056646 	4943 	0.055579
36.07 	0.060539 	4939 	0.059827
36.11 	0.056807 	4929 	0.056094
36.15 	0.063981 	4939 	0.062656
36.19 	0.060729 	4940 	0.059780
36.23 	0.055117 	4935 	0.054286
36.27 	0.059289 	4925 	0.057743
36.31 	0.056209 	4928 	0.055853
36.35 	0.063705 	4929 	0.062516
36.39 	0.055070 	4921 	0.054118
36.43 	0.059862 	4928 	0.058297
36.47 	0.059765 	4936 	0.058697
36.51 	0.057977 	4933 	0.057146
36.55 	0.053785 	4927 	0.052953
36.59 	0.057097 	4939 	0.055911
36.63 	0.054958 	4931 	0.054602
36.67 	0.057404 	4930 	0.056572
36.71 	0.052225 	4921 	0.051273
36.75 	0.055623 	4944 	0.054794
36.79 	0.058118 	4921 	0.056809
36.83 	0.053713 	4915 	0.053117
36.87 	0.058859 	4944 	0.058030
36.91 	0.056871 	4941 	0.056397
36.95 	0.052909 	4933 	0.051821
36.99 	0.054306 	4935 	0.053712
37.03 	0.055849 	4924 	0.055254
37.07 	0.055522 	4935 	0.054928
37.11 	0.061601 	4935 	0.060295
37.15 	0.056427 	4909 	0.054876
37.19 	0.056244 	4925 	0.055411
37.23 	0.058357 	4918 	0.057523
37.27 	0.051083 	4894 	0.050724
37.31 	0.053495 	4935 	0.052665
37.35 	0.058526 	4938 	0.057933
37.39 	0.051511 	4931 	0.050323
37.43 	0.054745 	4932 	0.053794
37.47 	0.057010 	4929 	0.056059
37.51 	0.057166 	4933 	0.056097
37.55 	0.051116 	4930 	0.050522
37.59 	0.056968 	4915 	0.056373
37.63 	0.058752 	4919 	0.057918
37.67 	0.058320 	4904 	0.057603
37.71 	0.055995 	4929 	0.055044
37.75 	0.052024 	4940 	0.050819
37.79 	0.056795 	4930 	0.055726
37.83 	0.056504 	4920 	0.055552
37.87 	0.050415 	4939 	0.049941
37.91 	0.051318 	4930 	0.050487
37.95 	0.057712 	4921 	0.056760
37.99 	0.053542 	4912 	0.052330
38.03 	0.060094 	4909 	0.059497
38.07 	0.050723 	4909 	0.049411
38.11 	0.050051 	4935 	0.048745
38.15 	0.055510 	4918 	0.054915
38.19 	0.054767 	4930 	0.053816
38.23 	0.057716 	4938 	0.057123
38.27 	0.055984 	4930 	0.055152
38.31 	0.056830 	4927 	0.055760
38.35 	0.056209 	4928 	0.055496
38.39 	0.058871 	4909 	0.058017
38.43 	0.057974 	4916 	0.056882
38.47 	0.054820 	4907 	0.053865
38.51 	0.061030 	4932 	0.060317
38.55 	0.057536 	4936 	0.056231
38.59 	0.058489 	4924 	0.057775
38.63 	0.063160 	4924 	0.062089
38.67 	0.066437 	4937 	0.065607
38.71 	0.058489 	4924 	0.058132
38.75 	0.063122 	4927 	0.062052
38.79 	0.066477 	4934 	0.065646
38.83 	0.056922 	4919 	0.055116
38.87 	0.050092 	4911 	0.049376
38.91 	0.054660 	4903 	0.053804
38.95 	0.052257 	4918 	0.051185
38.99 	0.053879 	4937 	0.052910
39.03 	0.049047 	4934 	0.048216
39.07 	0.047929 	4924 	0.047929
39.11 	0.047049 	4931 	0.046812
39.15 	0.048627 	4915 	0.047912
39.19 	0.049420 	4917 	0.048229
39.23 	0.048528 	4925 	0.047933
39.27 	0.048880 	4910 	0.048403
39.31 	0.049550 	4884 	0.048350
39.35 	0.043972 	4935 	0.043259
39.39 	0.048083 	4929 	0.047251
39.43 	0.043381 	4933 	0.042431
39.47 	0.042048 	4923 	0.040858
39.51 	0.042242 	4924 	0.041290
39.55 	0.047571 	4919 	0.046856
39.59 	0.046417 	4912 	0.045463
39.63 	0.046323 	4922 	0.045847
39.67 	0.047018 	4913 	0.045826
39.71 	0.052707 	4895 	0.051749
39.75 	0.049716 	4928 	0.049478
39.79 	0.045879 	4926 	0.045403
39.83 	0.051074 	4934 	0.050718
39.87 	0.049746 	4925 	0.048676
39.91 	0.047745 	4922 	0.047507
39.95 	0.047813 	4915 	0.047455
39.99 	0.046634 	4932 	0.046397
40.03 	0.046266 	4928 	0.045910
40.07 	0.045094 	4923 	0.044381
40.11 	0.045769 	4916 	0.045173
40.15 	0.046000 	4913 	0.045523
40.19 	0.042199 	4929 	0.041724
40.23 	0.046229 	4932 	0.045516
40.27 	0.043954 	4937 	0.043717
40.31 	0.047378 	4939 	0.046904
40.35 	0.047977 	4919 	0.047620
40.39 	0.039343 	4931 	0.039105
40.43 	0.039415 	4922 	0.038463
40.47 	0.043514 	4918 	0.043156
40.51 	0.045307 	4922 	0.044950
40.55 	0.041972 	4908 	0.041475
40.59 	0.045979 	4937 	0.045505
40.63 	0.044219 	4930 	0.043625
40.67 	0.041363 	4932 	0.041125
40.71 	0.041971 	4932 	0.041377
40.75 	0.046441 	4931 	0.045491
40.79 	0.045491 	4924 	0.044659
40.83 	0.046469 	4928 	0.046113
40.87 	0.048295 	4928 	0.047701
40.91 	0.043673 	4923 	0.043316
40.95 	0.042947 	4913 	0.042232
40.99 	0.046913 	4924 	0.046437
41.03 	0.037920 	4905 	0.037443
41.07 	0.043002 	4930 	0.042527
41.11 	0.043161 	4935 	0.042686
41.15 	0.043716 	4941 	0.043123
41.19 	0.045233 	4930 	0.044877
41.23 	0.039077 	4939 	0.038484
41.27 	0.046035 	4931 	0.045560
41.31 	0.043584 	4933 	0.043228
41.35 	0.040907 	4938 	0.040314
41.39 	0.044800 	4933 	0.043850
41.43 	0.038344 	4929 	0.037988
41.47 	0.039180 	4926 	0.038585
41.51 	0.048583 	4940 	0.047872
41.55 	0.044580 	4935 	0.044223
41.59 	0.049260 	4933 	0.048904
41.63 	0.045362 	4938 	0.044532
41.67 	0.040486 	4940 	0.040130
41.71 	0.040332 	4934 	0.039620
41.75 	0.041185 	4929 	0.040828
41.79 	0.046521 	4944 	0.045554
41.83 	0.034294 	4928 	0.033818
41.87 	0.041945 	4935 	0.041589
41.91 	0.040519 	4936 	0.040281
41.95 	0.038937 	4931 	0.038343
41.99 	0.040367 	4905 	0.039889
42.03 	0.040696 	4939 	0.039866
42.07 	0.038687 	4937 	0.038332
42.11 	0.042063 	4945 	0.041589
42.15 	0.039287 	4938 	0.038694
42.19 	0.039527 	4908 	0.039289
42.23 	0.036182 	4892 	0.035942
42.27 	0.039598 	4874 	0.038997
42.31 	0.040577 	4855 	0.040094
42.35 	0.041546 	4838 	0.041062
42.39 	0.037052 	4804 	0.036321
42.43 	0.039023 	4792 	0.038412
42.47 	0.039244 	4765 	0.038507
42.51 	0.038583 	4743 	0.037966
42.55 	0.045879 	4708 	0.045382
42.59 	0.041235 	4729 	0.040987
42.63 	0.037588 	4709 	0.037588
42.67 	0.045687 	4684 	0.045062
42.71 	0.039674 	4663 	0.039172
42.75 	0.036820 	4617 	0.036440
42.79 	0.042340 	4582 	0.041700
42.83 	0.039683 	4536 	0.039145
42.87 	0.042898 	4499 	0.042486
42.91 	0.042639 	4456 	0.041982
42.95 	0.037817 	4416 	0.037132
42.99 	0.042873 	4385 	0.041938
43.03 	0.038080 	4333 	0.037404
43.07 	0.041667 	4296 	0.040849
43.11 	0.044888 	4255 	0.044200
43.15 	0.038279 	4206 	0.037722
43.19 	0.036958 	4194 	0.036818
43.23 	0.041406 	4154 	0.040983
43.27 	0.045554 	4105 	0.044983
43.31 	0.036529 	4079 	0.036241
43.35 	0.034722 	4032 	0.034117
43.39 	0.038731 	4002 	0.037852
43.43 	0.040152 	3960 	0.039856
43.47 	0.038766 	3921 	0.038317
43.51 	0.030952 	3877 	0.030650
43.55 	0.040486 	2964 	0.039893
43.59 	0.038373 	1746 	0.037031
43.63 	0.041958 	1001 	0.040788
43.67 	0.043825 	502 	0.043825
43.71 	0.041841 	239 	0.041841
43.75 	0.062500 	16 	0.062500

File: 25SC_s1_0014.003.dat
#F C:\frames\spec\25SC_s1_0014.003
#C title =s:14 frm:3 25SC_s1
#C wavelength =0.15406

#S 1  fr_average C:\frames\spec\25SC_s1_0014.003 C:\win32app\speccom\mask.axs chi 0 180 0 360 0.02
#C 2 theta =0.000000 to 180 deg
#C   q   =0.000000 to 81.568 nm^-1
#C  chi  =0.000000 to 360 deg
#C collumns:
#C  1 position (2theta or chi in degrees)
#C  2 average intensity (sum of all counts in the region divided with number of pixels)
#C  3 Number of pixels in region)
#C  4 error (sum of sqrt(intensity) for all pixels divided by number)
#N 4
#L TTh  Int  N_pix  Err
32.99 	0.065574 	61 	0.065574
33.03 	0.059669 	1391 	0.059248
33.07 	0.065854 	2050 	0.065282
33.11 	0.062040 	2579 	0.061585
33.15 	0.055018 	2999 	0.053456
33.19 	0.060144 	3342 	0.059443
33.23 	0.055634 	3523 	0.055468
33.27 	0.060606 	3630 	0.059315
33.31 	0.062022 	3660 	0.060902
33.35 	0.057120 	3694 	0.055375
33.39 	0.060070 	3729 	0.058630
33.43 	0.056900 	3761 	0.056277
33.47 	0.060032 	3798 	0.059106
33.51 	0.061075 	3815 	0.059693
33.55 	0.059589 	3843 	0.057887
33.59 	0.058763 	3880 	0.057857
33.63 	0.054606 	3919 	0.053709
33.67 	0.053364 	3954 	0.052919
33.71 	0.057358 	3975 	0.056032
33.75 	0.063016 	3999 	0.061990
33.79 	0.057164 	4041 	0.056149
33.83 	0.063210 	4050 	0.062174
33.87 	0.058866 	4111 	0.058012
33.91 	0.056881 	4149 	0.055893
33.95 	0.062425 	4181 	0.059740
33.99 	0.053810 	4200 	0.053531
34.03 	0.069039 	4244 	0.068210
34.07 	0.055295 	4268 	0.054472
34.11 	0.065551 	4302 	0.064734
34.15 	0.054953 	4331 	0.054276
34.19 	0.056167 	4362 	0.054690
34.23 	0.056681 	4393 	0.055614
34.27 	0.057892 	4422 	0.056568
34.31 	0.060341 	4458 	0.059421
34.35 	0.063336 	4484 	0.062030
34.39 	0.058641 	4502 	0.057448
34.43 	0.059925 	4539 	0.058635
34.47 	0.058798 	4592 	0.057905
34.51 	0.058185 	4606 	0.057295
34.55 	0.058583 	4643 	0.057195
34.59 	0.054759 	4675 	0.054258
34.63 	0.060510 	4710 	0.059515
34.67 	0.057372 	4741 	0.056363
34.71 	0.056441 	4766 	0.055704
34.75 	0.060732 	4808 	0.059392
34.79 	0.067164 	4824 	0.065707
34.83 	0.058824 	4862 	0.057498
34.87 	0.057108 	4868 	0.055784
34.91 	0.065752 	4882 	0.063832
34.95 	0.056442 	4890 	0.055843
34.99 	0.064938 	4897 	0.062785
35.03 	0.056646 	4943 	0.055698
35.07 	0.056478 	4940 	0.056003
35.11 	0.058217 	4947 	0.057625
35.15 	0.060563 	4937 	0.059377
35.19 	0.057871 	4942 	0.057160
35.23 	0.051972 	4945 	0.051498
35.27 	0.061035 	4948 	0.060088
35.31 	0.063450 	4933 	0.061432
35.35 	0.058883 	4942 	0.057441
35.39 	0.061881 	4945 	0.060578
35.43 	0.058990 	4933 	0.058159
35.47 	0.059420 	4931 	0.058331
35.51 	0.063946 	4926 	0.063233
35.55 	0.061678 	4945 	0.060593
35.59 	0.065319 	4945 	0.063897
35.63 	0.065547 	4943 	0.064599
35.67 	0.059085 	4942 	0.058137
35.71 	0.060158 	4937 	0.059327
35.75 	0.058000 	4931 	0.057406
35.79 	0.065288 	4932 	0.064100
35.83 	0.058027 	4946 	0.057435
35.87 	0.062767 	4923 	0.060744
35.91 	0.056221 	4927 	0.055032
35.95 	0.058166 	4917 	0.057451
35.99 	0.057704 	4939 	0.056518
36.03 	0.067166 	4943 	0.064638
36.07 	0.057704 	4939 	0.056835
36.11 	0.062082 	4929 	0.061606
36.15 	0.056692 	4939 	0.055012
36.19 	0.052024 	4940 	0.050957
36.23 	0.063830 	4935 	0.063118
36.27 	0.057868 	4925 	0.057135
36.31 	0.057427 	4928 	0.056338
36.35 	0.057821 	4929 	0.056989
36.39 	0.060557 	4921 	0.059485
36.43 	0.054789 	4928 	0.054195
36.47 	0.064222 	4936 	0.062778
36.51 	0.056152 	4933 	0.055302
36.55 	0.057439 	4927 	0.056349
36.59 	0.062968 	4939 	0.062019
36.63 	0.060434 	4931 	0.059246
36.67 	0.057201 	4930 	0.056607
36.71 	0.055883 	4921 	0.055050
36.75 	0.053398 	4944 	0.052569
36.79 	0.063605 	4921 	0.063010
36.83 	0.060631 	4915 	0.059796
36.87 	0.055016 	4944 	0.054187
36.91 	0.053633 	4941 	0.052566
36.95 	0.056558 	4933 	0.055370
36.99 	0.058967 	4935 	0.058373
37.03 	0.057067 	4924 	0.055997
37.07 	0.061398 	4935 	0.060073
37.11 	0.056940 	4935 	0.055872
37.15 	0.055205 	4909 	0.054588
37.19 	0.060711 	4925 	0.059164
37.23 	0.054087 	4918 	0.053372
37.27 	0.052513 	4894 	0.052154
37.31 	0.058156 	4935 	0.057325
37.35 	0.051843 	4938 	0.051131
37.39 	0.056986 	4931 	0.056016
37.43 	0.057583 	4932 	0.057108
37.47 	0.050314 	4929 	0.049364
37.51 	0.054936 	4933 	0.053749
37.55 	0.059432 	4930 	0.059076
37.59 	0.050458 	4915 	0.050100
37.63 	0.061191 	4919 	0.060358
37.67 	0.054241 	4904 	0.053405
37.71 	0.052140 	4929 	0.051190
37.75 	0.053846 	4940 	0.052542
37.79 	0.050304 	4930 	0.049829
37.83 	0.052846 	4920 	0.051516
37.87 	0.055882 	4939 	0.055170
37.91 	0.057201 	4930 	0.055775
37.95 	0.046738 	4921 	0.046262
37.99 	0.054560 	4912 	0.053725
38.03 	0.053982 	4909 	0.053028
38.07 	0.055408 	4909 	0.054573
38.11 	0.054914 	4935 	0.053964
38.15 	0.054697 	4918 	0.053744
38.19 	0.060041 	4930 	0.058734
38.23 	0.055083 	4938 	0.053659
38.27 	0.063489 	4930 	0.062776
38.31 	0.055003 	4927 	0.053814
38.35 	0.060065 	4928 	0.059332
38.39 	0.056020 	4909 	0.055184
38.43 	0.065094 	4916 	0.063187
38.47 	0.060322 	4907 	0.058770
38.51 	0.051298 	4932 	0.050704
38.55 	0.060575 	4936 	0.059982
38.59 	0.051787 	4924 	0.050954
38.63 	0.057880 	4924 	0.056571
38.67 	0.060361 	4937 	0.059886
38.71 	0.054833 	4924 	0.053882
38.75 	0.050538 	4927 	0.049943
38.79 	0.055330 	4934 	0.054855
38.83 	0.057735 	4919 	0.056425
38.87 	0.050295 	4911 	0.049222
38.91 	0.054049 	4903 	0.053212
38.95 	0.051850 	4918 	0.051612
38.99 	0.049625 	4937 	0.048894
39.03 	0.053304 	4934 	0.052235
39.07 	0.055849 	4924 	0.055254
39.11 	0.050700 	4931 	0.049987
39.15 	0.047609 	4915 	0.046656
39.19 	0.052471 	4917 	0.051856
39.23 	0.038579 	4925 	0.038460
39.27 	0.055397 	4910 	0.054681
39.31 	0.052211 	4884 	0.051352
39.35 	0.054509 	4935 	0.053796
39.39 	0.051329 	4929 	0.051210
39.43 	0.056963 	4933 	0.056013
39.47 	0.049360 	4923 	0.048408
39.51 	0.048538 	4924 	0.047804
39.55 	0.042692 	4919 	0.042215
39.59 	0.051710 	4912 	0.051352
39.63 	0.052215 	4922 	0.051500
39.67 	0.047018 	4913 	0.046183
39.71 	0.052094 	4895 	0.051496
39.75 	0.052963 	4928 	0.052249
39.79 	0.041819 	4926 	0.041343
39.83 	0.047629 	4934 	0.047273
39.87 	0.049746 	4925 	0.049270
39.91 	0.050589 	4922 	0.049637
39.95 	0.048627 	4915 	0.047792
39.99 	0.052109 	4932 	0.051752
40.03 	0.046875 	4928 	0.046281
40.07 	0.048345 	4923 	0.047988
40.11 	0.050041 	4916 	0.049326
40.15 	0.046815 	4913 	0.046218
40.19 	0.048489 	4929 	0.047775
40.23 	0.050081 	4932 	0.049250
40.27 	0.045777 	4937 	0.045539
40.31 	0.040899 	4939 	0.040306
40.35 	0.047774 	4919 	0.047059
40.39 	0.049888 	4931 	0.049294
40.43 	0.044088 	4922 	0.043493
40.47 	0.045140 	4918 	0.044426
40.51 	0.043681 	4922 	0.043324
40.55 	0.045232 	4908 	0.044755
40.59 	0.046790 	4937 	0.045603
40.63 	0.043205 	4930 	0.042492
40.67 	0.042579 	4932 	0.042342
40.71 	0.048256 	4932 	0.047662
40.75 	0.048266 	4931 	0.047672
40.79 	0.053615 	4924 	0.052663
40.83 	0.049716 	4928 	0.049597
40.87 	0.046672 	4928 	0.046078
40.91 	0.042657 	4923 	0.042181
40.95 	0.051089 	4913 	0.050612
40.99 	0.042242 	4924 	0.041885
41.03 	0.048114 	4905 	0.047517
41.07 	0.043408 	4930 	0.042814
41.11 	0.050051 	4935 	0.048982
41.15 	0.048978 	4941 	0.048267
41.19 	0.045639 	4930 	0.045144
41.23 	0.046366 	4939 	0.046010
41.27 	0.046441 	4931 	0.045966
41.31 	0.047233 	4933 	0.046758
41.35 	0.044350 	4938 	0.043875
41.39 	0.037705 	4933 	0.037468
41.43 	0.042605 	4929 	0.041892
41.47 	0.049330 	4926 	0.048735
41.51 	0.046964 	4940 	0.046489
41.55 	0.039108 	4935 	0.038871
41.59 	0.046017 	4933 	0.045779
41.63 	0.045160 	4938 	0.044685
41.67 	0.043725 	4940 	0.043132
41.71 	0.042156 	4934 	0.041800
41.75 	0.048489 	4929 	0.048251
41.79 	0.045105 	4944 	0.044868
41.83 	0.043831 	4928 	0.043475
41.87 	0.041743 	4935 	0.041505
41.91 	0.037682 	4936 	0.037326
41.95 	0.041979 	4931 	0.041861
41.99 	0.044648 	4905 	0.043693
42.03 	0.047378 	4939 	0.046054
42.07 	0.044359 	4937 	0.043766
42.11 	0.043074 	4945 	0.042482
42.15 	0.040502 	4938 	0.039909
42.19 	0.033822 	4908 	0.033703
42.23 	0.044358 	4892 	0.044119
42.27 	0.037341 	4874 	0.036961
42.31 	0.037487 	4855 	0.036763
42.35 	0.038239 	4838 	0.037977
42.39 	0.040591 	4804 	0.040103
42.43 	0.043197 	4792 	0.042830
42.47 	0.043861 	4765 	0.043001
42.51 	0.039005 	4743 	0.038634
42.55 	0.044817 	4708 	0.044444
42.59 	0.041446 	4729 	0.040827
42.63 	0.037163 	4709 	0.036665
42.67 	0.040137 	4684 	0.039136
42.71 	0.041175 	4663 	0.041175
42.75 	0.043318 	4617 	0.042811
42.79 	0.039066 	4582 	0.038427
42.83 	0.042769 	4536 	0.042640
42.87 	0.040009 	4499 	0.039228
42.91 	0.039048 	4456 	0.038260
42.95 	0.039402 	4416 	0.038341
42.99 	0.044698 	4385 	0.044030
43.03 	0.046619 	4333 	0.046213
43.07 	0.039804 	4296 	0.039668
43.11 	0.046533 	4255 	0.046258
43.15 	0.043509 	4206 	0.042952
43.19 	0.045780 	4194 	0.044942
43.23 	0.039239 	4154 	0.038675
43.27 	0.043118 	4105 	0.042547
43.31 	0.044128 	4079 	0.043410
43.35 	0.036706 	4032 	0.036416
43.39 	0.044728 	4002 	0.044581
43.43 	0.044697 	3960 	0.044401
43.47 	0.044887 	3921 	0.044438
43.51 	0.039464 	3877 	0.039161
43.55 	0.033063 	2964 	0.033063
43.59 	0.042383 	1746 	0.041376
43.63 	0.041958 	1001 	0.041373
43.67 	0.047809 	502 	0.046642
43.71 	0.004184 	239 	0.004184
43.75 	0.062500 	16 	0.062500