Folder: Bessy-II-KMC-II-insitu-sin2psi/Example_Data (part 113)

File: 25SC_s1_0045.003.dat
#F C:\frames\spec\25SC_s1_0045.003
#C title =s:45 frm:3 25SC_s1
#C wavelength =0.15406

#S 1  fr_average C:\frames\spec\25SC_s1_0045.003 C:\win32app\speccom\mask.axs chi 0 180 0 360 0.02
#C 2 theta =0.000000 to 180 deg
#C   q   =0.000000 to 81.568 nm^-1
#C  chi  =0.000000 to 360 deg
#C collumns:
#C  1 position (2theta or chi in degrees)
#C  2 average intensity (sum of all counts in the region divided with number of pixels)
#C  3 Number of pixels in region)
#C  4 error (sum of sqrt(intensity) for all pixels divided by number)
#N 4
#L TTh  Int  N_pix  Err
32.99 	0.016393 	61 	0.016393
33.03 	0.063264 	1391 	0.062422
33.07 	0.060488 	2050 	0.058488
33.11 	0.055060 	2579 	0.053697
33.15 	0.065022 	2999 	0.063654
33.19 	0.062537 	3342 	0.061310
33.23 	0.057621 	3523 	0.057289
33.27 	0.047107 	3630 	0.046785
33.31 	0.057104 	3660 	0.055797
33.35 	0.062805 	3694 	0.061536
33.39 	0.071333 	3729 	0.070704
33.43 	0.058495 	3761 	0.058028
33.47 	0.064771 	3798 	0.064000
33.51 	0.063172 	3815 	0.062250
33.55 	0.056206 	3843 	0.055444
33.59 	0.054124 	3880 	0.052765
33.63 	0.057413 	3919 	0.056516
33.67 	0.058675 	3954 	0.057490
33.71 	0.060629 	3975 	0.060039
33.75 	0.057764 	3999 	0.056886
33.79 	0.060134 	4041 	0.059264
33.83 	0.061728 	4050 	0.060571
33.87 	0.054974 	4111 	0.053977
33.91 	0.064112 	4149 	0.062982
33.95 	0.060512 	4181 	0.059531
33.99 	0.065714 	4200 	0.064297
34.03 	0.062912 	4244 	0.061670
34.07 	0.058575 	4268 	0.057340
34.11 	0.061832 	4302 	0.061015
34.15 	0.066036 	4331 	0.063984
34.19 	0.063503 	4362 	0.061354
34.23 	0.059413 	4393 	0.058479
34.27 	0.056083 	4422 	0.054891
34.31 	0.056079 	4458 	0.055553
34.35 	0.058430 	4484 	0.056993
34.39 	0.060418 	4502 	0.059116
34.43 	0.057061 	4539 	0.056932
34.47 	0.051611 	4592 	0.051229
34.51 	0.056448 	4606 	0.056067
34.55 	0.061598 	4643 	0.060967
34.59 	0.058396 	4675 	0.057769
34.63 	0.057113 	4710 	0.056242
34.67 	0.053786 	4741 	0.053292
34.71 	0.057491 	4766 	0.056733
34.75 	0.060108 	4808 	0.059255
34.79 	0.057629 	4824 	0.056657
34.83 	0.054299 	4862 	0.053576
34.87 	0.055053 	4868 	0.054331
34.91 	0.055100 	4882 	0.054121
34.95 	0.060532 	4890 	0.058974
34.99 	0.055136 	4897 	0.054418
35.03 	0.060287 	4943 	0.059576
35.07 	0.059514 	4940 	0.058803
35.11 	0.050131 	4947 	0.049303
35.15 	0.054284 	4937 	0.053335
35.19 	0.054836 	4942 	0.054243
35.23 	0.057634 	4945 	0.056449
35.27 	0.058812 	4948 	0.058338
35.31 	0.053720 	4933 	0.052889
35.35 	0.052003 	4942 	0.051035
35.39 	0.060465 	4945 	0.059498
35.43 	0.058382 	4933 	0.056839
35.47 	0.061448 	4931 	0.060498
35.51 	0.059683 	4926 	0.058851
35.55 	0.059050 	4945 	0.057746
35.59 	0.060465 	4945 	0.058925
35.63 	0.051993 	4943 	0.051163
35.67 	0.057669 	4942 	0.056464
35.71 	0.060766 	4937 	0.060172
35.75 	0.059623 	4931 	0.058554
35.79 	0.060219 	4932 	0.059150
35.83 	0.057016 	4946 	0.055950
35.87 	0.050985 	4923 	0.050033
35.91 	0.058250 	4927 	0.057894
35.95 	0.054912 	4917 	0.053939
35.99 	0.056489 	4939 	0.055778
36.03 	0.051386 	4943 	0.050418
36.07 	0.057704 	4939 	0.056992
36.11 	0.056807 	4929 	0.055737
36.15 	0.056287 	4939 	0.055812
36.19 	0.052024 	4940 	0.050957
36.23 	0.060182 	4935 	0.059470
36.27 	0.059086 	4925 	0.057302
36.31 	0.053369 	4928 	0.052774
36.35 	0.050923 	4929 	0.050448
36.39 	0.053241 	4921 	0.052289
36.43 	0.057224 	4928 	0.056273
36.47 	0.049838 	4936 	0.048632
36.51 	0.058382 	4933 	0.057907
36.55 	0.051756 	4927 	0.051161
36.59 	0.059526 	4939 	0.057866
36.63 	0.052119 	4931 	0.051763
36.67 	0.051927 	4930 	0.051333
36.71 	0.050803 	4921 	0.050327
36.75 	0.051780 	4944 	0.051424
36.79 	0.055273 	4921 	0.054202
36.83 	0.060020 	4915 	0.058709
36.87 	0.055421 	4944 	0.054710
36.91 	0.051407 	4941 	0.050695
36.95 	0.062031 	4933 	0.060369
36.99 	0.065856 	4935 	0.064788
37.03 	0.061942 	4924 	0.060237
37.07 	0.054914 	4935 	0.054439
37.11 	0.050253 	4935 	0.050016
37.15 	0.053168 	4909 	0.052452
37.19 	0.056041 	4925 	0.055327
37.23 	0.056934 	4918 	0.056100
37.27 	0.053535 	4894 	0.052936
37.31 	0.052685 	4935 	0.052329
37.35 	0.050425 	4938 	0.049595
37.39 	0.046846 	4931 	0.046134
37.43 	0.049676 	4932 	0.048607
37.47 	0.051126 	4929 	0.050888
37.51 	0.055747 	4933 	0.054678
37.55 	0.052535 	4930 	0.051803
37.59 	0.052289 	4915 	0.051335
37.63 	0.050620 	4919 	0.049906
37.67 	0.053426 	4904 	0.052092
37.71 	0.057618 	4929 	0.056549
37.75 	0.053441 	4940 	0.052710
37.79 	0.050710 	4930 	0.049878
37.83 	0.058943 	4920 	0.057752
37.87 	0.051022 	4939 	0.050904
37.91 	0.055172 	4930 	0.054341
37.95 	0.053851 	4921 	0.053256
37.99 	0.052321 	4912 	0.051347
38.03 	0.052149 	4909 	0.051552
38.07 	0.057853 	4909 	0.057018
38.11 	0.048835 	4935 	0.048123
38.15 	0.055510 	4918 	0.054319
38.19 	0.053753 	4930 	0.053277
38.23 	0.054881 	4938 	0.054050
38.27 	0.056592 	4930 	0.055642
38.31 	0.065963 	4927 	0.064417
38.35 	0.062500 	4928 	0.061311
38.39 	0.051945 	4909 	0.051587
38.43 	0.057567 	4916 	0.056018
38.47 	0.060933 	4907 	0.060336
38.51 	0.063869 	4932 	0.062562
38.55 	0.066248 	4936 	0.065061
38.59 	0.064175 	4924 	0.062986
38.63 	0.060317 	4924 	0.059722
38.67 	0.063196 	4937 	0.061654
38.71 	0.053818 	4924 	0.052747
38.75 	0.055409 	4927 	0.053744
38.79 	0.049453 	4934 	0.048721
38.83 	0.048587 	4919 	0.047515
38.87 	0.050703 	4911 	0.049987
38.91 	0.046910 	4903 	0.046193
38.95 	0.049410 	4918 	0.048219
38.99 	0.046790 	4937 	0.046315
39.03 	0.051682 	4934 	0.051207
39.07 	0.047725 	4924 	0.047131
39.11 	0.051105 	4931 	0.050392
39.15 	0.046999 	4915 	0.046880
39.19 	0.046166 	4917 	0.045571
39.23 	0.044467 	4925 	0.043515
39.27 	0.047454 	4910 	0.046500
39.31 	0.048935 	4884 	0.047616
39.35 	0.045593 	4935 	0.044999
39.39 	0.047677 	4929 	0.046726
39.43 	0.045611 	4933 	0.044780
39.47 	0.042860 	4923 	0.042503
39.51 	0.046101 	4924 	0.045744
39.55 	0.043911 	4919 	0.042721
39.59 	0.043974 	4912 	0.043735
39.63 	0.044900 	4922 	0.043810
39.67 	0.044779 	4913 	0.044183
39.71 	0.055975 	4895 	0.055377
39.75 	0.049716 	4928 	0.048646
39.79 	0.050345 	4926 	0.049751
39.83 	0.045399 	4934 	0.044687
39.87 	0.046904 	4925 	0.046547
39.91 	0.052011 	4922 	0.050702
39.95 	0.046185 	4915 	0.045112
39.99 	0.052920 	4932 	0.051970
40.03 	0.050325 	4928 	0.049730
40.07 	0.044891 	4923 	0.044296
40.11 	0.045159 	4916 	0.044682
40.15 	0.046000 	4913 	0.045285
40.19 	0.039968 	4929 	0.039373
40.23 	0.044809 	4932 	0.044453
40.27 	0.049423 	4937 	0.048454
40.31 	0.044543 	4939 	0.044188
40.35 	0.045334 	4919 	0.044858
40.39 	0.042791 	4931 	0.042434
40.43 	0.047135 	4922 	0.046302
40.47 	0.041887 	4918 	0.041530
40.51 	0.048761 	4922 	0.048047
40.55 	0.043195 	4908 	0.042817
40.59 	0.040308 	4937 	0.039952
40.63 	0.045436 	4930 	0.044842
40.67 	0.039943 	4932 	0.039468
40.71 	0.050892 	4932 	0.050417
40.75 	0.042791 	4931 	0.042197
40.79 	0.047929 	4924 	0.047096
40.83 	0.049513 	4928 	0.048919
40.87 	0.045860 	4928 	0.044791
40.91 	0.044688 	4923 	0.043736
40.95 	0.041930 	4913 	0.041214
40.99 	0.042242 	4924 	0.041528
41.03 	0.042202 	4905 	0.041605
41.07 	0.040162 	4930 	0.039806
41.11 	0.046809 	4935 	0.046334
41.15 	0.047561 	4941 	0.046731
41.19 	0.048073 	4930 	0.047479
41.23 	0.050820 	4939 	0.050346
41.27 	0.046644 	4931 	0.045931
41.31 	0.038922 	4933 	0.038803
41.35 	0.043945 	4938 	0.043233
41.39 	0.042165 	4933 	0.041928
41.43 	0.045242 	4929 	0.044767
41.47 	0.047097 	4926 	0.045908
41.51 	0.044939 	4940 	0.044228
41.55 	0.043972 	4935 	0.043359
41.59 	0.040949 	4933 	0.040355
41.63 	0.040907 	4938 	0.040907
41.67 	0.039474 	4940 	0.038881
41.71 	0.041954 	4934 	0.041459
41.75 	0.045242 	4929 	0.044886
41.79 	0.038633 	4944 	0.038514
41.83 	0.045657 	4928 	0.045182
41.87 	0.038703 	4935 	0.037991
41.91 	0.047002 	4936 	0.046408
41.95 	0.037721 	4931 	0.037602
41.99 	0.041182 	4905 	0.040705
42.03 	0.040696 	4939 	0.039866
42.07 	0.043751 	4937 	0.043395
42.11 	0.038827 	4945 	0.038116
42.15 	0.037465 	4938 	0.036871
42.19 	0.045232 	4908 	0.044516
42.23 	0.038021 	4892 	0.037542
42.27 	0.038572 	4874 	0.038091
42.31 	0.038929 	4855 	0.038688
42.35 	0.042580 	4838 	0.041853
42.39 	0.044130 	4804 	0.043642
42.43 	0.039649 	4792 	0.039527
42.47 	0.035887 	4765 	0.035272
42.51 	0.041746 	4743 	0.041252
42.55 	0.039720 	4708 	0.039346
42.59 	0.040389 	4729 	0.040265
42.63 	0.040985 	4709 	0.040737
42.67 	0.045047 	4684 	0.044547
42.71 	0.041604 	4663 	0.041081
42.75 	0.045267 	4617 	0.044887
42.79 	0.036229 	4582 	0.035824
42.83 	0.037698 	4536 	0.036794
42.87 	0.040898 	4499 	0.040377
42.91 	0.040619 	4456 	0.040356
42.95 	0.043252 	4416 	0.042721
42.99 	0.044698 	4385 	0.044297
43.03 	0.042234 	4333 	0.041423
43.07 	0.036546 	4296 	0.036273
43.11 	0.042538 	4255 	0.042401
43.15 	0.039705 	4206 	0.039566
43.19 	0.044588 	4194 	0.043889
43.23 	0.038517 	4154 	0.038094
43.27 	0.046772 	4105 	0.045773
43.31 	0.043638 	4079 	0.042776
43.35 	0.037946 	4032 	0.037365
43.39 	0.040980 	4002 	0.040394
43.43 	0.040909 	3960 	0.040613
43.47 	0.046162 	3921 	0.045863
43.51 	0.040495 	3877 	0.040042
43.55 	0.046221 	2964 	0.046024
43.59 	0.040664 	1746 	0.040329
43.63 	0.046953 	1001 	0.046953
43.67 	0.037849 	502 	0.037849
43.71 	0.020921 	239 	0.020921
43.75 	0.000000 	16 	0.000000

File: 25SC_s1_0045.004.dat
#F C:\frames\spec\25SC_s1_0045.004
#C title =s:45 frm:4 25SC_s1
#C wavelength =0.15406

#S 1  fr_average C:\frames\spec\25SC_s1_0045.004 C:\win32app\speccom\mask.axs chi 0 180 0 360 0.02
#C 2 theta =0.000000 to 180 deg
#C   q   =0.000000 to 81.568 nm^-1
#C  chi  =0.000000 to 360 deg
#C collumns:
#C  1 position (2theta or chi in degrees)
#C  2 average intensity (sum of all counts in the region divided with number of pixels)
#C  3 Number of pixels in region)
#C  4 error (sum of sqrt(intensity) for all pixels divided by number)
#N 4
#L TTh  Int  N_pix  Err
32.99 	0.032787 	61 	0.032787
33.03 	0.058950 	1391 	0.058950
33.07 	0.061951 	2050 	0.061094
33.11 	0.052734 	2579 	0.051825
33.15 	0.059687 	2999 	0.059101
33.19 	0.049372 	3342 	0.048320
33.23 	0.052796 	3523 	0.052297
33.27 	0.062259 	3630 	0.061748
33.31 	0.054918 	3660 	0.053891
33.35 	0.056849 	3694 	0.056215
33.39 	0.060070 	3729 	0.058185
33.43 	0.060622 	3761 	0.059220
33.47 	0.062665 	3798 	0.061585
33.51 	0.060026 	3815 	0.058005
33.55 	0.053864 	3843 	0.052492
33.59 	0.065206 	3880 	0.063394
33.63 	0.056647 	3919 	0.056199
33.67 	0.059686 	3954 	0.058649
33.71 	0.065660 	3975 	0.064334
33.75 	0.062516 	3999 	0.061637
33.79 	0.053452 	4041 	0.052437
33.83 	0.058519 	4050 	0.057506
33.87 	0.058866 	4111 	0.058154
33.91 	0.059050 	4149 	0.058627
33.95 	0.063143 	4181 	0.062162
33.99 	0.055714 	4200 	0.054877
34.03 	0.055844 	4244 	0.055291
34.07 	0.060918 	4268 	0.060232
34.11 	0.057183 	4302 	0.056910
34.15 	0.066036 	4331 	0.064818
34.19 	0.059606 	4362 	0.059069
34.23 	0.061461 	4393 	0.060261
34.27 	0.062867 	4422 	0.061940
34.31 	0.056528 	4458 	0.055476
34.35 	0.057092 	4484 	0.056439
34.39 	0.059973 	4502 	0.059583
34.43 	0.066314 	4539 	0.065153
34.47 	0.052918 	4592 	0.051749
34.51 	0.056448 	4606 	0.055431
34.55 	0.060521 	4643 	0.058986
34.59 	0.061390 	4675 	0.060137
34.63 	0.057113 	4710 	0.055993
34.67 	0.049779 	4741 	0.049161
34.71 	0.063995 	4766 	0.061783
34.75 	0.059900 	4808 	0.058784
34.79 	0.064677 	4824 	0.063705
34.83 	0.053476 	4862 	0.052271
34.87 	0.060394 	4868 	0.058950
34.91 	0.062679 	4882 	0.062199
34.95 	0.060327 	4890 	0.059009
34.99 	0.059833 	4897 	0.058756
35.03 	0.060490 	4943 	0.059779
35.07 	0.049595 	4940 	0.048765
35.11 	0.058824 	4947 	0.057758
35.15 	0.061373 	4937 	0.060305
35.19 	0.064346 	4942 	0.062687
35.23 	0.060061 	4945 	0.058639
35.27 	0.059418 	4948 	0.058471
35.31 	0.058180 	4933 	0.057348
35.35 	0.056253 	4942 	0.055778
35.39 	0.053185 	4945 	0.052593
35.43 	0.057977 	4933 	0.057264
35.47 	0.060637 	4931 	0.059924
35.51 	0.060495 	4926 	0.059049
35.55 	0.060870 	4945 	0.059803
35.59 	0.056623 	4945 	0.055794
35.63 	0.055432 	4943 	0.054128
35.67 	0.058276 	4942 	0.057190
35.71 	0.065627 	4937 	0.063966
35.75 	0.050902 	4931 	0.049952
35.79 	0.054339 	4932 	0.053389
35.83 	0.059038 	4946 	0.058445
35.87 	0.057079 	4923 	0.056008
35.91 	0.057236 	4927 	0.056027
35.95 	0.060606 	4917 	0.059395
35.99 	0.057097 	4939 	0.056504
36.03 	0.063524 	4943 	0.062675
36.07 	0.058919 	4939 	0.058207
36.11 	0.060661 	4929 	0.059829
36.15 	0.057299 	4939 	0.055876
36.19 	0.058907 	4940 	0.058195
36.23 	0.064235 	4935 	0.063404
36.27 	0.057868 	4925 	0.056679
36.31 	0.048701 	4928 	0.047988
36.35 	0.058430 	4929 	0.057717
36.39 	0.060760 	4921 	0.059173
36.43 	0.060674 	4928 	0.059842
36.47 	0.059157 	4936 	0.057832
36.51 	0.056963 	4933 	0.055895
36.55 	0.055409 	4927 	0.054815
36.59 	0.062563 	4939 	0.061852
36.63 	0.056784 	4931 	0.055695
36.67 	0.054970 	4930 	0.054257
36.71 	0.060150 	4921 	0.058960
36.75 	0.054005 	4944 	0.052820
36.79 	0.053444 	4921 	0.052492
36.83 	0.058596 	4915 	0.057623
36.87 	0.057039 	4944 	0.055953
36.91 	0.062943 	4941 	0.062113
36.95 	0.052504 	4933 	0.051316
36.99 	0.057548 	4935 	0.057192
37.03 	0.051787 	4924 	0.051192
37.07 	0.053495 	4935 	0.052764
37.11 	0.057953 	4935 	0.057122
37.15 	0.055001 	4909 	0.054285
37.19 	0.055228 	4925 	0.053801
37.23 	0.056120 	4918 	0.055267
37.27 	0.052922 	4894 	0.051964
37.31 	0.049443 	4935 	0.048731
37.35 	0.055488 	4938 	0.054520
37.39 	0.062056 	4931 	0.060849
37.43 	0.050689 	4932 	0.050214
37.47 	0.051329 	4929 	0.050616
37.51 	0.050882 	4933 	0.050526
37.55 	0.059838 	4930 	0.058749
37.59 	0.053713 	4915 	0.052521
37.63 	0.062614 	4919 	0.062019
37.67 	0.052610 	4904 	0.051635
37.71 	0.059647 	4929 	0.058577
37.75 	0.052834 	4940 	0.052241
37.79 	0.052738 	4930 	0.051907
37.83 	0.053049 	4920 	0.051839
37.87 	0.055274 	4939 	0.054207
37.91 	0.056389 	4930 	0.055795
37.95 	0.055477 	4921 	0.054762
37.99 	0.058225 	4912 	0.057271
38.03 	0.055001 	4909 	0.054524
38.07 	0.050112 	4909 	0.049157
38.11 	0.055724 	4935 	0.054537
38.15 	0.053274 	4918 	0.052797
38.19 	0.058621 	4930 	0.057432
38.23 	0.056703 	4938 	0.056229
38.27 	0.054564 	4930 	0.053851
38.31 	0.055003 	4927 	0.053695
38.35 	0.059862 	4928 	0.059387
38.39 	0.057038 	4909 	0.056083
38.43 	0.060822 	4916 	0.059749
38.47 	0.065621 	4907 	0.064307
38.51 	0.068532 	4932 	0.067107
38.55 	0.071110 	4936 	0.069805
38.59 	0.068643 	4924 	0.067097
38.63 	0.064379 	4924 	0.063308
38.67 	0.059145 	4937 	0.058414
38.71 	0.065597 	4924 	0.064407
38.75 	0.057236 	4927 	0.056522
38.79 	0.056344 	4934 	0.055750
38.83 	0.054279 	4919 	0.053208
38.87 	0.062513 	4911 	0.061201
38.91 	0.058536 	4903 	0.056843
38.95 	0.055917 	4918 	0.055202
38.99 	0.055297 	4937 	0.053992
39.03 	0.052493 	4934 	0.052137
39.07 	0.051584 	4924 	0.050275
39.11 	0.053742 	4931 	0.053029
39.15 	0.047406 	4915 	0.046572
39.19 	0.054301 	4917 	0.054063
39.23 	0.050964 	4925 	0.050013
39.27 	0.055193 	4910 	0.053881
39.31 	0.055487 	4884 	0.054048
39.35 	0.056940 	4935 	0.056109
39.39 	0.055386 	4929 	0.054555
39.43 	0.050476 	4933 	0.049764
39.47 	0.056673 	4923 	0.055364
39.51 	0.050772 	4924 	0.049919
39.55 	0.050823 	4919 	0.050228
39.59 	0.051710 	4912 	0.051114
39.63 	0.055465 	4922 	0.054513
39.67 	0.061877 	4913 	0.060565
39.71 	0.057610 	4895 	0.056533
39.75 	0.053571 	4928 	0.052383
39.79 	0.059277 	4926 	0.058683
39.83 	0.059992 	4934 	0.059141
39.87 	0.055431 	4925 	0.054837
39.91 	0.058919 	4922 	0.058086
39.95 	0.059410 	4915 	0.058337
39.99 	0.055353 	4932 	0.054996
40.03 	0.055398 	4928 	0.054447
40.07 	0.053423 	4923 	0.052233
40.11 	0.054516 	4916 	0.053682
40.15 	0.052717 	4913 	0.051744
40.19 	0.058024 	4929 	0.057311
40.23 	0.053122 	4932 	0.052766
40.27 	0.055702 	4937 	0.055465
40.31 	0.053250 	4939 	0.052301
40.35 	0.051840 	4919 	0.051006
40.39 	0.054350 	4931 	0.053518
40.43 	0.054653 	4922 	0.053581
40.47 	0.050834 	4918 	0.050119
40.51 	0.048761 	4922 	0.048047
40.55 	0.047270 	4908 	0.046673
40.59 	0.050030 	4937 	0.049081
40.63 	0.058824 	4930 	0.057992
40.67 	0.052311 	4932 	0.051836
40.71 	0.050081 	4932 	0.049725
40.75 	0.047860 	4931 	0.046791
40.79 	0.046710 	4924 	0.045877
40.83 	0.053166 	4928 	0.052571
40.87 	0.050731 	4928 	0.049304
40.91 	0.051188 	4923 	0.050355
40.95 	0.054142 	4913 	0.053427
40.99 	0.047929 	4924 	0.047334
41.03 	0.050765 	4905 	0.050406
41.07 	0.053144 	4930 	0.052550
41.11 	0.051672 	4935 	0.050841
41.15 	0.049787 	4941 	0.049313
41.19 	0.053753 	4930 	0.052683
41.23 	0.049605 	4939 	0.049131
41.27 	0.049888 	4931 	0.049413
41.31 	0.045003 	4933 	0.044647
41.35 	0.049008 	4938 	0.048889
41.39 	0.047841 	4933 	0.047366
41.43 	0.046663 	4929 	0.045950
41.47 	0.047706 	4926 	0.046993
41.51 	0.049595 	4940 	0.049121
41.55 	0.047822 	4935 	0.047109
41.59 	0.053517 	4933 	0.053042
41.63 	0.048198 	4938 	0.047605
41.67 	0.042308 	4940 	0.041952
41.71 	0.047426 	4934 	0.046951
41.75 	0.048489 	4929 	0.047657
41.79 	0.050566 	4944 	0.050092
41.83 	0.043019 	4928 	0.042306
41.87 	0.047011 	4935 	0.046062
41.91 	0.050851 	4936 	0.050614
41.95 	0.048874 	4931 	0.048399
41.99 	0.048726 	4905 	0.047890
42.03 	0.050213 	4939 	0.049738
42.07 	0.043549 	4937 	0.042955
42.11 	0.050961 	4945 	0.050368
42.15 	0.046173 	4938 	0.045935
42.19 	0.049307 	4908 	0.048591
42.23 	0.045176 	4892 	0.044817
42.27 	0.050267 	4874 	0.049666
42.31 	0.040783 	4855 	0.040179
42.35 	0.045680 	4838 	0.044348
42.39 	0.047252 	4804 	0.046643
42.43 	0.049249 	4792 	0.048149
42.47 	0.043652 	4765 	0.042894
42.51 	0.046806 	4743 	0.046188
42.55 	0.047154 	4708 	0.046656
42.59 	0.046310 	4729 	0.045443
42.63 	0.046082 	4709 	0.045709
42.67 	0.047182 	4684 	0.046807
42.71 	0.045893 	4663 	0.045391
42.75 	0.042452 	4617 	0.041691
42.79 	0.048232 	4582 	0.047721
42.83 	0.048501 	4536 	0.047963
42.87 	0.043565 	4499 	0.043044
42.91 	0.050943 	4456 	0.050548
42.95 	0.054121 	4416 	0.053591
42.99 	0.049031 	4385 	0.048630
43.03 	0.049158 	4333 	0.048887
43.07 	0.052374 	4296 	0.050874
43.11 	0.047474 	4255 	0.047061
43.15 	0.046125 	4206 	0.045405
43.19 	0.041726 	4194 	0.040888
43.23 	0.043813 	4154 	0.043108
43.27 	0.052619 	4105 	0.051334
43.31 	0.046580 	4079 	0.046149
43.35 	0.045387 	4032 	0.045096
43.39 	0.056972 	4002 	0.055361
43.43 	0.053283 	3960 	0.052099
43.47 	0.047437 	3921 	0.047287
43.51 	0.046428 	3877 	0.045974
43.55 	0.049258 	2964 	0.048467
43.59 	0.059565 	1746 	0.057497
43.63 	0.055944 	1001 	0.055359
43.67 	0.061753 	502 	0.061753
43.71 	0.033473 	239 	0.033473
43.75 	0.000000 	16 	0.000000