Folder: Bessy-II-KMC-II-insitu-sin2psi/Example_Data (part 108)

File: 25SC_s1_0043.003.dat
#F C:\frames\spec\25SC_s1_0043.003
#C title =s:43 frm:3 25SC_s1
#C wavelength =0.15406

#S 1  fr_average C:\frames\spec\25SC_s1_0043.003 C:\win32app\speccom\mask.axs chi 0 180 0 360 0.02
#C 2 theta =0.000000 to 180 deg
#C   q   =0.000000 to 81.568 nm^-1
#C  chi  =0.000000 to 360 deg
#C collumns:
#C  1 position (2theta or chi in degrees)
#C  2 average intensity (sum of all counts in the region divided with number of pixels)
#C  3 Number of pixels in region)
#C  4 error (sum of sqrt(intensity) for all pixels divided by number)
#N 4
#L TTh  Int  N_pix  Err
32.99 	0.032787 	61 	0.032787
33.03 	0.064702 	1391 	0.063017
33.07 	0.062927 	2050 	0.061212
33.11 	0.060101 	2579 	0.058965
33.15 	0.064355 	2999 	0.063183
33.19 	0.054159 	3342 	0.053283
33.23 	0.057337 	3523 	0.056007
33.27 	0.059504 	3630 	0.058375
33.31 	0.056557 	3660 	0.056237
33.35 	0.057932 	3694 	0.056663
33.39 	0.054706 	3729 	0.054706
33.43 	0.060888 	3761 	0.059772
33.47 	0.054502 	3798 	0.053885
33.51 	0.064744 	3815 	0.063363
33.55 	0.059329 	3843 	0.058109
33.59 	0.062887 	3880 	0.061226
33.63 	0.059454 	3919 	0.058557
33.67 	0.065503 	3954 	0.064294
33.71 	0.065157 	3975 	0.063978
33.75 	0.056264 	3999 	0.055385
33.79 	0.057412 	4041 	0.056687
33.83 	0.057284 	4050 	0.055693
33.87 	0.063002 	4111 	0.062004
33.91 	0.064835 	4149 	0.063564
33.95 	0.055489 	4181 	0.054648
33.99 	0.060000 	4200 	0.059163
34.03 	0.049953 	4244 	0.049263
34.07 	0.053655 	4268 	0.052397
34.11 	0.054858 	4302 	0.054177
34.15 	0.055876 	4331 	0.055200
34.19 	0.061669 	4362 	0.060707
34.23 	0.057136 	4393 	0.056181
34.27 	0.056309 	4422 	0.055250
34.31 	0.061687 	4458 	0.061293
34.35 	0.060437 	4484 	0.059000
34.39 	0.059529 	4502 	0.058597
34.43 	0.056620 	4539 	0.056362
34.47 	0.060976 	4592 	0.059572
34.51 	0.060573 	4606 	0.059556
34.55 	0.062029 	4643 	0.061146
34.59 	0.057968 	4675 	0.057216
34.63 	0.057113 	4710 	0.055351
34.67 	0.064332 	4741 	0.062726
34.71 	0.054553 	4766 	0.053693
34.75 	0.057404 	4808 	0.056186
34.79 	0.064262 	4824 	0.062805
34.83 	0.054916 	4862 	0.054193
34.87 	0.055053 	4868 	0.054452
34.91 	0.058992 	4882 	0.058032
34.95 	0.059305 	4890 	0.058107
34.99 	0.067388 	4897 	0.066312
35.03 	0.060894 	4943 	0.060183
35.07 	0.057490 	4940 	0.057134
35.11 	0.058217 	4947 	0.057270
35.15 	0.056107 	4937 	0.055039
35.19 	0.060907 	4942 	0.059228
35.23 	0.056825 	4945 	0.055048
35.27 	0.061237 	4948 	0.059915
35.31 	0.058180 	4933 	0.057705
35.35 	0.056860 	4942 	0.056148
35.39 	0.057836 	4945 	0.056415
35.43 	0.055342 	4933 	0.055104
35.47 	0.056986 	4931 	0.055917
35.51 	0.053796 	4926 	0.052726
35.55 	0.054196 	4945 	0.053485
35.59 	0.056825 	4945 	0.056114
35.63 	0.060085 	4943 	0.059137
35.67 	0.050992 	4942 	0.050280
35.71 	0.056107 	4937 	0.055514
35.75 	0.062462 	4931 	0.061155
35.79 	0.054947 	4932 	0.053997
35.83 	0.059240 	4946 	0.058766
35.87 	0.056470 	4923 	0.055994
35.91 	0.058453 	4927 	0.057502
35.95 	0.057352 	4917 	0.056280
35.99 	0.057299 	4939 	0.056706
36.03 	0.053207 	4943 	0.052851
36.07 	0.054060 	4939 	0.052992
36.11 	0.051938 	4929 	0.051462
36.15 	0.054667 	4939 	0.054430
36.19 	0.059919 	4940 	0.059326
36.23 	0.059169 	4935 	0.058457
36.27 	0.053401 	4925 	0.052568
36.31 	0.051745 	4928 	0.050556
36.35 	0.054169 	4929 	0.053575
36.39 	0.056086 	4921 	0.054896
36.43 	0.060268 	4928 	0.059198
36.47 	0.053890 	4936 	0.052822
36.51 	0.059396 	4933 	0.058526
36.55 	0.054597 	4927 	0.054003
36.59 	0.052237 	4939 	0.051644
36.63 	0.054553 	4931 	0.053721
36.67 	0.049696 	4930 	0.048151
36.71 	0.058525 	4921 	0.057691
36.75 	0.056028 	4944 	0.054843
36.79 	0.056696 	4921 	0.055743
36.83 	0.049847 	4915 	0.049113
36.87 	0.056634 	4944 	0.055449
36.91 	0.056264 	4941 	0.055197
36.95 	0.054936 	4933 	0.054699
36.99 	0.051672 	4935 	0.051078
37.03 	0.053615 	4924 	0.052901
37.07 	0.056332 	4935 	0.055264
37.11 	0.056738 	4935 	0.055393
37.15 	0.054186 	4909 	0.053470
37.19 	0.049543 	4925 	0.048829
37.23 	0.052054 	4918 	0.051101
37.27 	0.056804 	4894 	0.056206
37.31 	0.050253 	4935 	0.048829
37.35 	0.048805 	4938 	0.047975
37.39 	0.052728 	4931 	0.052015
37.43 	0.056367 	4932 	0.056129
37.47 	0.052546 	4929 	0.051358
37.51 	0.051287 	4933 	0.050575
37.55 	0.049696 	4930 	0.048270
37.59 	0.053917 	4915 	0.053201
37.63 	0.052856 	4919 	0.052142
37.67 	0.054241 	4904 	0.053644
37.71 	0.051532 	4929 	0.050938
37.75 	0.049393 	4940 	0.048800
37.79 	0.053753 	4930 	0.052564
37.83 	0.052642 	4920 	0.051194
37.87 	0.048795 	4939 	0.048439
37.91 	0.051521 	4930 	0.050808
37.95 	0.047958 	4921 	0.047124
37.99 	0.052728 	4912 	0.052370
38.03 	0.056223 	4909 	0.054911
38.07 	0.053371 	4909 	0.052775
38.11 	0.050051 	4935 	0.049319
38.15 	0.058357 	4918 	0.057762
38.19 	0.053144 	4930 	0.052075
38.23 	0.055691 	4938 	0.054742
38.27 	0.054361 	4930 	0.053767
38.31 	0.056627 	4927 	0.056032
38.35 	0.060877 	4928 	0.060025
38.39 	0.059483 	4909 	0.058528
38.43 	0.069569 	4916 	0.067901
38.47 	0.060526 	4907 	0.059929
38.51 	0.066302 	4932 	0.065114
38.55 	0.059360 	4936 	0.058410
38.59 	0.055240 	4924 	0.054526
38.63 	0.061535 	4924 	0.059989
38.67 	0.052664 	4937 	0.052070
38.71 	0.052803 	4924 	0.051712
38.75 	0.052567 	4927 	0.051497
38.79 	0.052493 	4934 	0.051781
38.83 	0.051840 	4919 	0.051721
38.87 	0.049481 	4911 	0.049123
38.91 	0.050581 	4903 	0.049745
38.95 	0.045140 	4918 	0.044426
38.99 	0.045169 	4937 	0.044813
39.03 	0.052898 	4934 	0.051830
39.07 	0.054224 	4924 	0.053154
39.11 	0.046441 	4931 	0.045728
39.15 	0.047813 	4915 	0.047574
39.19 	0.052268 	4917 	0.052029
39.23 	0.041624 	4925 	0.040792
39.27 	0.047251 	4910 	0.046773
39.31 	0.052007 	4884 	0.051287
39.35 	0.042553 	4935 	0.041960
39.39 	0.049300 	4929 	0.048587
39.43 	0.045611 	4933 	0.045136
39.47 	0.044485 	4923 	0.043890
39.51 	0.043258 	4924 	0.043258
39.55 	0.049807 	4919 	0.049211
39.59 	0.050896 	4912 	0.049942
39.63 	0.048761 	4922 	0.048166
39.67 	0.052310 	4913 	0.051237
39.71 	0.047395 	4895 	0.047276
39.75 	0.050731 	4928 	0.050255
39.79 	0.048924 	4926 	0.048211
39.83 	0.047426 	4934 	0.046951
39.87 	0.052386 	4925 	0.052029
39.91 	0.042056 	4922 	0.041818
39.95 	0.047609 	4915 	0.047252
39.99 	0.045215 	4932 	0.044740
40.03 	0.048498 	4928 	0.047785
40.07 	0.050782 	4923 	0.050306
40.11 	0.046786 	4916 	0.046309
40.15 	0.045593 	4913 	0.044520
40.19 	0.045445 	4929 	0.044832
40.23 	0.048662 	4932 	0.048305
40.27 	0.050435 	4937 	0.049842
40.31 	0.046366 	4939 	0.045773
40.35 	0.050417 	4919 	0.050059
40.39 	0.046238 	4931 	0.046119
40.43 	0.043681 	4922 	0.043443
40.47 	0.044530 	4918 	0.043677
40.51 	0.047745 	4922 	0.047507
40.55 	0.045640 	4908 	0.045023
40.59 	0.046384 	4937 	0.045791
40.63 	0.047667 	4930 	0.046836
40.67 	0.045823 	4932 	0.045348
40.71 	0.044201 	4932 	0.043607
40.75 	0.049077 	4931 	0.047889
40.79 	0.044070 	4924 	0.043475
40.83 	0.045860 	4928 	0.045504
40.87 	0.042817 	4928 	0.042103
40.91 	0.047735 	4923 	0.047021
40.95 	0.051903 	4913 	0.050830
40.99 	0.041227 	4924 	0.040513
41.03 	0.048114 	4905 	0.047517
41.07 	0.046247 	4930 	0.045653
41.11 	0.044782 	4935 	0.044189
41.15 	0.048168 	4941 	0.047338
41.19 	0.037525 	4930 	0.037169
41.23 	0.039684 	4939 	0.039091
41.27 	0.045630 	4931 	0.044917
41.31 	0.044598 	4933 	0.043885
41.35 	0.041717 	4938 	0.041361
41.39 	0.036489 	4933 	0.036133
41.43 	0.043619 	4929 	0.043263
41.47 	0.044052 	4926 	0.043814
41.51 	0.044939 	4940 	0.044584
41.55 	0.049037 	4935 	0.048325
41.59 	0.041151 	4933 	0.041033
41.63 	0.040097 	4938 	0.039385
41.67 	0.046154 	4940 	0.045917
41.71 	0.042156 	4934 	0.041682
41.75 	0.041185 	4929 	0.040828
41.79 	0.041869 	4944 	0.041277
41.83 	0.044034 	4928 	0.043064
41.87 	0.045390 	4935 	0.044777
41.91 	0.044773 	4936 	0.043785
41.95 	0.046238 	4931 	0.045763
41.99 	0.040163 	4905 	0.039805
42.03 	0.042114 	4939 	0.041877
42.07 	0.044359 	4937 	0.044240
42.11 	0.043074 	4945 	0.042600
42.15 	0.042122 	4938 	0.041766
42.19 	0.046047 	4908 	0.045809
42.23 	0.042723 	4892 	0.042004
42.27 	0.039598 	4874 	0.039357
42.31 	0.045932 	4855 	0.045449
42.35 	0.043613 	4838 	0.042887
42.39 	0.038926 	4804 	0.038682
42.43 	0.040693 	4792 	0.040204
42.47 	0.031689 	4765 	0.031566
42.51 	0.039216 	4743 	0.038845
42.55 	0.042056 	4708 	0.041434
42.59 	0.040812 	4729 	0.040193
42.63 	0.043958 	4709 	0.043585
42.67 	0.037788 	4684 	0.037538
42.71 	0.045679 	4663 	0.045051
42.75 	0.040069 	4617 	0.039562
42.79 	0.042340 	4582 	0.041317
42.83 	0.042549 	4536 	0.042161
42.87 	0.041787 	4499 	0.041657
42.91 	0.036355 	4456 	0.036093
42.95 	0.045063 	4416 	0.044665
42.99 	0.036260 	4385 	0.035592
43.03 	0.040157 	4333 	0.039616
43.07 	0.034218 	4296 	0.033945
43.11 	0.043243 	4255 	0.042830
43.15 	0.043272 	4206 	0.042993
43.19 	0.037911 	4194 	0.037353
43.23 	0.044535 	4154 	0.043971
43.27 	0.043118 	4105 	0.042405
43.31 	0.041432 	4079 	0.041288
43.35 	0.042907 	4032 	0.041744
43.39 	0.041479 	4002 	0.040747
43.43 	0.040909 	3960 	0.040613
43.47 	0.038766 	3921 	0.038616
43.51 	0.045654 	3877 	0.045201
43.55 	0.036775 	2964 	0.036379
43.59 	0.044101 	1746 	0.044101
43.63 	0.047952 	1001 	0.047367
43.67 	0.041833 	502 	0.041833
43.71 	0.012552 	239 	0.012552
43.75 	0.000000 	16 	0.000000

File: 25SC_s1_0043.004.dat
#F C:\frames\spec\25SC_s1_0043.004
#C title =s:43 frm:4 25SC_s1
#C wavelength =0.15406

#S 1  fr_average C:\frames\spec\25SC_s1_0043.004 C:\win32app\speccom\mask.axs chi 0 180 0 360 0.02
#C 2 theta =0.000000 to 180 deg
#C   q   =0.000000 to 81.568 nm^-1
#C  chi  =0.000000 to 360 deg
#C collumns:
#C  1 position (2theta or chi in degrees)
#C  2 average intensity (sum of all counts in the region divided with number of pixels)
#C  3 Number of pixels in region)
#C  4 error (sum of sqrt(intensity) for all pixels divided by number)
#N 4
#L TTh  Int  N_pix  Err
32.99 	0.032787 	61 	0.032787
33.03 	0.050324 	1391 	0.049481
33.07 	0.059024 	2050 	0.057263
33.11 	0.056611 	2579 	0.055930
33.15 	0.061354 	2999 	0.060572
33.19 	0.058049 	3342 	0.056822
33.23 	0.055918 	3523 	0.055087
33.27 	0.053168 	3630 	0.052523
33.31 	0.052186 	3660 	0.051039
33.35 	0.061992 	3694 	0.060565
33.39 	0.055511 	3729 	0.054725
33.43 	0.061952 	3761 	0.061017
33.47 	0.060558 	3798 	0.059941
33.51 	0.060026 	3815 	0.058798
33.55 	0.064533 	3843 	0.063466
33.59 	0.055928 	3880 	0.054544
33.63 	0.059964 	3919 	0.058470
33.67 	0.057410 	3954 	0.056225
33.71 	0.051069 	3975 	0.050480
33.75 	0.066517 	3999 	0.065052
33.79 	0.064341 	4041 	0.063181
33.83 	0.056543 	4050 	0.055531
33.87 	0.062272 	4111 	0.061275
33.91 	0.058327 	4149 	0.057904
33.95 	0.053337 	4181 	0.052356
33.99 	0.056667 	4200 	0.055272
34.03 	0.058435 	4244 	0.057607
34.07 	0.063964 	4268 	0.063141
34.11 	0.063226 	4302 	0.062682
34.15 	0.060032 	4331 	0.059063
34.19 	0.054791 	4362 	0.053851
34.23 	0.062827 	4393 	0.062160
34.27 	0.058571 	4422 	0.056849
34.31 	0.059668 	4458 	0.058617
34.35 	0.061106 	4484 	0.060322
34.39 	0.059085 	4502 	0.058434
34.43 	0.053977 	4539 	0.053073
34.47 	0.055967 	4592 	0.054925
34.51 	0.059271 	4606 	0.057744
34.55 	0.054275 	4643 	0.053644
34.59 	0.061390 	4675 	0.060242
34.63 	0.051380 	4710 	0.050738
34.67 	0.057583 	4741 	0.056224
34.71 	0.061897 	4766 	0.061405
34.75 	0.059900 	4808 	0.058438
34.79 	0.053483 	4824 	0.052633
34.83 	0.055533 	4862 	0.054448
34.87 	0.055259 	4868 	0.054898
34.91 	0.058583 	4882 	0.057363
34.95 	0.058282 	4890 	0.057204
34.99 	0.059220 	4897 	0.058024
35.03 	0.059883 	4943 	0.058678
35.07 	0.060121 	4940 	0.058936
35.11 	0.058824 	4947 	0.057876
35.15 	0.061778 	4937 	0.060355
35.19 	0.058883 	4942 	0.058053
35.23 	0.058241 	4945 	0.057273
35.27 	0.059418 	4948 	0.058333
35.31 	0.059396 	4933 	0.058921
35.35 	0.061109 	4942 	0.060398
35.39 	0.057634 	4945 	0.056094
35.43 	0.062842 	4933 	0.061655
35.47 	0.055770 	4931 	0.055057
35.51 	0.060292 	4926 	0.059440
35.55 	0.054803 	4945 	0.053855
35.59 	0.054398 	4945 	0.053668
35.63 	0.063120 	4943 	0.061934
35.67 	0.049575 	4942 	0.049219
35.71 	0.056715 	4937 	0.056121
35.75 	0.055972 	4931 	0.054784
35.79 	0.056164 	4932 	0.055332
35.83 	0.059846 	4946 	0.059373
35.87 	0.055657 	4923 	0.054586
35.91 	0.053785 	4927 	0.052596
35.95 	0.055725 	4917 	0.054653
35.99 	0.059931 	4939 	0.058864
36.03 	0.054623 	4943 	0.054267
36.07 	0.054464 	4939 	0.053140
36.11 	0.053763 	4929 	0.052437
36.15 	0.057502 	4939 	0.056434
36.19 	0.059312 	4940 	0.058482
36.23 	0.062411 	4935 	0.061462
36.27 	0.062538 	4925 	0.061111
36.31 	0.059862 	4928 	0.058911
36.35 	0.057821 	4929 	0.056751
36.39 	0.059744 	4921 	0.059030
36.43 	0.057630 	4928 	0.056441
36.47 	0.054092 	4936 	0.053143
36.51 	0.056761 	4933 	0.055454
36.55 	0.064136 	4927 	0.062947
36.59 	0.054667 	4939 	0.053718
36.63 	0.053944 	4931 	0.052756
36.67 	0.060041 	4930 	0.058952
36.71 	0.048161 	4921 	0.047804
36.75 	0.059061 	4944 	0.058232
36.79 	0.059134 	4921 	0.057944
36.83 	0.057782 	4915 	0.057186
36.87 	0.057443 	4944 	0.056495
36.91 	0.058288 	4941 	0.057102
36.95 	0.058382 	4933 	0.057789
36.99 	0.053698 	4935 	0.052986
37.03 	0.056255 	4924 	0.055660
37.07 	0.051064 	4935 	0.050352
37.11 	0.050051 	4935 	0.049082
37.15 	0.051538 	4909 	0.050464
37.19 	0.048934 	4925 	0.047982
37.23 	0.055714 	4918 	0.054880
37.27 	0.053126 	4894 	0.052269
37.31 	0.053901 	4935 	0.053307
37.35 	0.050830 	4938 	0.050237
37.39 	0.053539 	4931 	0.052945
37.43 	0.051703 	4932 	0.051228
37.47 	0.056401 	4929 	0.055569
37.51 	0.053112 	4933 	0.051687
37.55 	0.051927 	4930 	0.051452
37.59 	0.059410 	4915 	0.058337
37.63 	0.055906 	4919 	0.055310
37.67 	0.054649 	4904 	0.054291
37.71 	0.053358 	4929 	0.052526
37.75 	0.054049 	4940 	0.052863
37.79 	0.058824 	4930 	0.057992
37.83 	0.055691 	4920 	0.055453
37.87 	0.056084 	4939 	0.055610
37.91 	0.056795 	4930 	0.055607
37.95 	0.056899 	4921 	0.056423
37.99 	0.062093 	4912 	0.061139
38.03 	0.060501 	4909 	0.059169
38.07 	0.056020 	4909 	0.055065
38.11 	0.050659 	4935 	0.050065
38.15 	0.054900 	4918 	0.054067
38.19 	0.058418 	4930 	0.057111
38.23 	0.061361 	4938 	0.060511
38.27 	0.057201 	4930 	0.056607
38.31 	0.052770 	4927 	0.051819
38.35 	0.058036 	4928 	0.057085
38.39 	0.061927 	4909 	0.060495
38.43 	0.064483 	4916 	0.063530
38.47 	0.073161 	4907 	0.071589
38.51 	0.066302 	4932 	0.064976
38.55 	0.073339 	4936 	0.071302
38.59 	0.056458 	4924 	0.055506
38.63 	0.061332 	4924 	0.060143
38.67 	0.059955 	4937 	0.059125
38.71 	0.060317 	4924 	0.059841
38.75 	0.058656 	4927 	0.057586
38.79 	0.059384 	4934 	0.058434
38.83 	0.057939 	4919 	0.056629
38.87 	0.056811 	4911 	0.055976
38.91 	0.057312 	4903 	0.056953
38.95 	0.051850 	4918 	0.050897
38.99 	0.054689 	4937 	0.053740
39.03 	0.056952 	4934 	0.056477
39.07 	0.056458 	4924 	0.055625
39.11 	0.051105 	4931 	0.050274
39.15 	0.047813 	4915 	0.047098
39.19 	0.052064 	4917 	0.050992
39.23 	0.052995 	4925 	0.052281
39.27 	0.056008 	4910 	0.054795
39.31 	0.053645 	4884 	0.052905
39.35 	0.054711 	4935 	0.053406
39.39 	0.055995 	4929 	0.055401
39.43 	0.055139 	4933 	0.054189
39.47 	0.057485 	4923 	0.056533
39.51 	0.053006 	4924 	0.052034
39.55 	0.054076 	4919 	0.053838
39.59 	0.056596 	4912 	0.055404
39.63 	0.051605 	4922 	0.050891
39.67 	0.054753 	4913 	0.053322
39.71 	0.053933 	4895 	0.053215
39.75 	0.060268 	4928 	0.059436
39.79 	0.058262 	4926 	0.057549
39.83 	0.050263 	4934 	0.049670
39.87 	0.056447 	4925 	0.055713
39.91 	0.048964 	4922 	0.048012
39.95 	0.059003 	4915 	0.058050
39.99 	0.054339 	4932 	0.053745
40.03 	0.050528 	4928 	0.049814
40.07 	0.052204 	4923 	0.051609
40.11 	0.050244 	4916 	0.049767
40.15 	0.051700 	4913 	0.050746
40.19 	0.050314 	4929 	0.049720
40.23 	0.051500 	4932 	0.050788
40.27 	0.049018 	4937 	0.048662
40.31 	0.056489 	4939 	0.055422
40.35 	0.050417 	4919 	0.049464
40.39 	0.047658 	4931 	0.046826
40.43 	0.049573 	4922 	0.048859
40.47 	0.052054 	4918 	0.051696
40.51 	0.048354 	4922 	0.047521
40.55 	0.054401 	4908 	0.053207
40.59 	0.052056 	4937 	0.051463
40.63 	0.052535 	4930 	0.051704
40.67 	0.044607 	4932 	0.044250
40.71 	0.046431 	4932 	0.045462
40.75 	0.052525 	4931 	0.052050
40.79 	0.051178 	4924 	0.050583
40.83 	0.048904 	4928 	0.048548
40.87 	0.052760 	4928 	0.052047
40.91 	0.051798 	4923 	0.051203
40.95 	0.049461 	4913 	0.048864
40.99 	0.054021 	4924 	0.053426
41.03 	0.048114 	4905 	0.047278
41.07 	0.047667 	4930 	0.047192
41.11 	0.049240 	4935 	0.048152
41.15 	0.042704 	4941 	0.042348
41.19 	0.045436 	4930 	0.044228
41.23 	0.049808 	4939 	0.048977
41.27 	0.053133 	4931 	0.052777
41.31 	0.054733 	4933 	0.054021
41.35 	0.052248 	4938 	0.051655
41.39 	0.055544 	4933 	0.055188
41.43 	0.045851 	4929 	0.044900
41.47 	0.051360 	4926 	0.050409
41.51 	0.047976 	4940 	0.047146
41.55 	0.043364 	4935 	0.042889
41.59 	0.050274 	4933 	0.049799
41.63 	0.047185 	4938 	0.046711
41.67 	0.047773 	4940 	0.046943
41.71 	0.043778 	4934 	0.042947
41.75 	0.047271 	4929 	0.046202
41.79 	0.050162 	4944 	0.049214
41.83 	0.050528 	4928 	0.049814
41.87 	0.047822 	4935 	0.046635
41.91 	0.049838 	4936 	0.049007
41.95 	0.049483 	4931 	0.048651
41.99 	0.043017 	4905 	0.042659
42.03 	0.050618 	4939 	0.049550
42.07 	0.045372 	4937 	0.045115
42.11 	0.045703 	4945 	0.044992
42.15 	0.045362 	4938 	0.045007
42.19 	0.044214 	4908 	0.043378
42.23 	0.044563 	4892 	0.044084
42.27 	0.049036 	4874 	0.047834
42.31 	0.047992 	4855 	0.047630
42.35 	0.045267 	4838 	0.044419
42.39 	0.045171 	4804 	0.044439
42.43 	0.044240 	4792 	0.043629
42.47 	0.044911 	4765 	0.044050
42.51 	0.047017 	4743 	0.046399
42.55 	0.048003 	4708 	0.047257
42.59 	0.056883 	4729 	0.055768
42.63 	0.046931 	4709 	0.046185
42.67 	0.055722 	4684 	0.055346
42.71 	0.046751 	4663 	0.046123
42.75 	0.046784 	4617 	0.046022
42.79 	0.048887 	4582 	0.048248
42.83 	0.048501 	4536 	0.047726
42.87 	0.046232 	4499 	0.045972
42.91 	0.046230 	4456 	0.045704
42.95 	0.046649 	4416 	0.046118
42.99 	0.048347 	4385 	0.047812
43.03 	0.049850 	4333 	0.049174
43.07 	0.049348 	4296 	0.048530
43.11 	0.050999 	4255 	0.050723
43.15 	0.046362 	4206 	0.045945
43.19 	0.047926 	4194 	0.046669
43.23 	0.044054 	4154 	0.043631
43.27 	0.042875 	4105 	0.042161
43.31 	0.050257 	4079 	0.049683
43.35 	0.042411 	4032 	0.041684
43.39 	0.045477 	4002 	0.044453
43.43 	0.051010 	3960 	0.050714
43.47 	0.045652 	3921 	0.045502
43.51 	0.050297 	3877 	0.049843
43.55 	0.044534 	2964 	0.044139
43.59 	0.058992 	1746 	0.058321
43.63 	0.051948 	1001 	0.051363
43.67 	0.047809 	502 	0.047809
43.71 	0.037657 	239 	0.037657
43.75 	0.062500 	16 	0.062500