Folder: Bessy-II-KMC-II-insitu-sin2psi/Example_Data (part 127)

File: 25SC_s1_0051.001.dat
#F C:\frames\spec\25SC_s1_0051.001
#C title =s:51 frm:1 25SC_s1
#C wavelength =0.15406

#S 1  fr_average C:\frames\spec\25SC_s1_0051.001 C:\win32app\speccom\mask.axs chi 0 180 0 360 0.02
#C 2 theta =0.000000 to 180 deg
#C   q   =0.000000 to 81.568 nm^-1
#C  chi  =0.000000 to 360 deg
#C collumns:
#C  1 position (2theta or chi in degrees)
#C  2 average intensity (sum of all counts in the region divided with number of pixels)
#C  3 Number of pixels in region)
#C  4 error (sum of sqrt(intensity) for all pixels divided by number)
#N 4
#L TTh  Int  N_pix  Err
32.99 	0.065574 	61 	0.065574
33.03 	0.058950 	1391 	0.057687
33.07 	0.061463 	2050 	0.059177
33.11 	0.053509 	2579 	0.052828
33.15 	0.057686 	2999 	0.057100
33.19 	0.052663 	3342 	0.051962
33.23 	0.059324 	3523 	0.057994
33.27 	0.061983 	3630 	0.061015
33.31 	0.064481 	3660 	0.063361
33.35 	0.054142 	3694 	0.053825
33.39 	0.060070 	3729 	0.059598
33.43 	0.057697 	3761 	0.057386
33.47 	0.053449 	3798 	0.052524
33.51 	0.057143 	3815 	0.056222
33.55 	0.056727 	3843 	0.055964
33.59 	0.061340 	3880 	0.060585
33.63 	0.050523 	3919 	0.049776
33.67 	0.061204 	3954 	0.059870
33.71 	0.060126 	3975 	0.059094
33.75 	0.061265 	3999 	0.060069
33.79 	0.058154 	4041 	0.057719
33.83 	0.052840 	4050 	0.051682
33.87 	0.058623 	4111 	0.057768
33.91 	0.061702 	4149 	0.060854
33.95 	0.060033 	4181 	0.059333
33.99 	0.059762 	4200 	0.058646
34.03 	0.059849 	4244 	0.059435
34.07 	0.057170 	4268 	0.056461
34.11 	0.059972 	4302 	0.059019
34.15 	0.058878 	4331 	0.058202
34.19 	0.055021 	4362 	0.054618
34.23 	0.056453 	4393 	0.055253
34.27 	0.054953 	4422 	0.053628
34.31 	0.058995 	4458 	0.057812
34.35 	0.052632 	4484 	0.051717
34.39 	0.052421 	4502 	0.051901
34.43 	0.055299 	4539 	0.054395
34.47 	0.064024 	4592 	0.063514
34.51 	0.056014 	4606 	0.054869
34.55 	0.057075 	4643 	0.056444
34.59 	0.054759 	4675 	0.053611
34.63 	0.050531 	4710 	0.050033
34.67 	0.059481 	4741 	0.058225
34.71 	0.055183 	4766 	0.053953
34.75 	0.053037 	4808 	0.052306
34.79 	0.058458 	4824 	0.057608
34.83 	0.049774 	4862 	0.049031
34.87 	0.053615 	4868 	0.053014
34.91 	0.055100 	4882 	0.053661
34.95 	0.052761 	4890 	0.051922
34.99 	0.060037 	4897 	0.059439
35.03 	0.059680 	4943 	0.058614
35.07 	0.050000 	4940 	0.049526
35.11 	0.057206 	4947 	0.056614
35.15 	0.054487 	4937 	0.053775
35.19 	0.058074 	4942 	0.057007
35.23 	0.051365 	4945 	0.050368
35.27 	0.049313 	4948 	0.048603
35.31 	0.054531 	4933 	0.054056
35.35 	0.057264 	4942 	0.055842
35.39 	0.054196 	4945 	0.052893
35.43 	0.050476 	4933 	0.049526
35.47 	0.050294 	4931 	0.049581
35.51 	0.048112 	4926 	0.047280
35.55 	0.047523 	4945 	0.046575
35.59 	0.059858 	4945 	0.058318
35.63 	0.055432 	4943 	0.054839
35.67 	0.053622 	4942 	0.053266
35.71 	0.053474 	4937 	0.052762
35.75 	0.056986 	4931 	0.055561
35.79 	0.055353 	4932 	0.054640
35.83 	0.057825 	4946 	0.056858
35.87 	0.052610 	4923 	0.051896
35.91 	0.057845 	4927 	0.056893
35.95 	0.058369 	4917 	0.056920
35.99 	0.055882 	4939 	0.055170
36.03 	0.060085 	4943 	0.058900
36.07 	0.052642 	4939 	0.051931
36.11 	0.055995 	4929 	0.055282
36.15 	0.062766 	4939 	0.061936
36.19 	0.054453 	4940 	0.054098
36.23 	0.052280 	4935 	0.051330
36.27 	0.057056 	4925 	0.056104
36.31 	0.059659 	4928 	0.057856
36.35 	0.060459 	4929 	0.059270
36.39 	0.054460 	4921 	0.053151
36.43 	0.058239 	4928 	0.057149
36.47 	0.059157 	4936 	0.058089
36.51 	0.055342 	4933 	0.054392
36.55 	0.057439 	4927 	0.056844
36.59 	0.056084 	4939 	0.055254
36.63 	0.061245 	4931 	0.060414
36.67 	0.060243 	4930 	0.059293
36.71 	0.056899 	4921 	0.056304
36.75 	0.051173 	4944 	0.050581
36.79 	0.063199 	4921 	0.061770
36.83 	0.056358 	4915 	0.055524
36.87 	0.057039 	4944 	0.056209
36.91 	0.058085 	4941 	0.057117
36.95 	0.061220 	4933 	0.060152
36.99 	0.051672 	4935 	0.051434
37.03 	0.058083 	4924 	0.057369
37.07 	0.057143 	4935 	0.056055
37.11 	0.060790 	4935 	0.059247
37.15 	0.053779 	4909 	0.053182
37.19 	0.055228 	4925 	0.054753
37.23 	0.054697 	4918 	0.053387
37.27 	0.055170 	4894 	0.054691
37.31 	0.056130 	4935 	0.055655
37.35 	0.054273 	4938 	0.053205
37.39 	0.056986 	4931 	0.055898
37.43 	0.049878 	4932 	0.049522
37.47 	0.061067 	4929 	0.060235
37.51 	0.053923 	4933 	0.053091
37.55 	0.052333 	4930 	0.051382
37.59 	0.055544 	4915 	0.054690
37.63 	0.051230 	4919 	0.050873
37.67 	0.058728 	4904 	0.057891
37.71 	0.053561 	4929 	0.052947
37.75 	0.056073 	4940 	0.055006
37.79 	0.055984 	4930 	0.055251
37.83 	0.052642 	4920 	0.052047
37.87 	0.045556 	4939 	0.045081
37.91 	0.053347 	4930 	0.052515
37.95 	0.053444 	4921 	0.052730
37.99 	0.053135 	4912 	0.052658
38.03 	0.047464 	4909 	0.046629
38.07 	0.055205 	4909 	0.054369
38.11 	0.058967 	4935 	0.058017
38.15 	0.057137 	4918 	0.056065
38.19 	0.051927 	4930 	0.051214
38.23 	0.063994 	4938 	0.063163
38.27 	0.065923 	4930 	0.064478
38.31 	0.061295 	4927 	0.060344
38.35 	0.071834 	4928 	0.070408
38.39 	0.075372 	4909 	0.073920
38.43 	0.067941 	4916 	0.066869
38.47 	0.076829 	4907 	0.075277
38.51 	0.073195 	4932 	0.071157
38.55 	0.079619 	4936 	0.077364
38.59 	0.062754 	4924 	0.061188
38.63 	0.064988 	4924 	0.063084
38.67 	0.060563 	4937 	0.059495
38.71 	0.062754 	4924 	0.061207
38.75 	0.052365 	4927 	0.051394
38.79 	0.049655 	4934 	0.049181
38.83 	0.056516 	4919 	0.056158
38.87 	0.049481 	4911 	0.049481
38.91 	0.053845 	4903 	0.053247
38.95 	0.046767 	4918 	0.046171
38.99 	0.042941 	4937 	0.042348
39.03 	0.044386 	4934 	0.043674
39.07 	0.052600 	4924 	0.051390
39.11 	0.045427 	4931 	0.045051
39.15 	0.048016 	4915 	0.046944
39.19 	0.047793 	4917 	0.046821
39.23 	0.047716 	4925 	0.046645
39.27 	0.043992 	4910 	0.043395
39.31 	0.045045 	4884 	0.044805
39.35 	0.043161 	4935 	0.042449
39.39 	0.045445 	4929 	0.044732
39.43 	0.044800 	4933 	0.044444
39.47 	0.043266 	4923 	0.042909
39.51 	0.042242 	4924 	0.042004
39.55 	0.047977 	4919 	0.047263
39.59 	0.042142 	4912 	0.041168
39.63 	0.043681 	4922 	0.042353
39.67 	0.043151 	4913 	0.043032
39.71 	0.042901 	4895 	0.042542
39.75 	0.042208 	4928 	0.041851
39.79 	0.039992 	4926 	0.039516
39.83 	0.045602 	4934 	0.045008
39.87 	0.044061 	4925 	0.043942
39.91 	0.041853 	4922 	0.041496
39.95 	0.043540 	4915 	0.043063
39.99 	0.042985 	4932 	0.042628
40.03 	0.035714 	4928 	0.035477
40.07 	0.042657 	4923 	0.042300
40.11 	0.045972 	4916 	0.045019
40.15 	0.041726 	4913 	0.041488
40.19 	0.044228 	4929 	0.043990
40.23 	0.036496 	4932 	0.035902
40.27 	0.039700 	4937 	0.039107
40.31 	0.045556 	4939 	0.044488
40.35 	0.041269 	4919 	0.041149
40.39 	0.038532 	4931 	0.037581
40.43 	0.045104 	4922 	0.044985
40.47 	0.043107 	4918 	0.042750
40.51 	0.045916 	4922 	0.045440
40.55 	0.040139 	4908 	0.039542
40.59 	0.042131 	4937 	0.041419
40.63 	0.039554 	4930 	0.038841
40.67 	0.038321 	4932 	0.037846
40.71 	0.039943 	4932 	0.039824
40.75 	0.039546 	4931 	0.038952
40.79 	0.041836 	4924 	0.041479
40.83 	0.042411 	4928 	0.042054
40.87 	0.042411 	4928 	0.041579
40.91 	0.047329 	4923 	0.046496
40.95 	0.038673 	4913 	0.038077
40.99 	0.043054 	4924 	0.042698
41.03 	0.037309 	4905 	0.036812
41.07 	0.041582 	4930 	0.041345
41.11 	0.039108 	4935 	0.038515
41.15 	0.041490 	4941 	0.040778
41.19 	0.041988 	4930 	0.041275
41.23 	0.038874 	4939 	0.038518
41.27 	0.044818 	4931 	0.044818
41.31 	0.039530 	4933 	0.038936
41.35 	0.040907 	4938 	0.040077
41.39 	0.042165 	4933 	0.041928
41.43 	0.036519 	4929 	0.036162
41.47 	0.041007 	4926 	0.040769
41.51 	0.038866 	4940 	0.038392
41.55 	0.039514 	4935 	0.039276
41.59 	0.042976 	4933 	0.042738
41.63 	0.041920 	4938 	0.041327
41.67 	0.038664 	4940 	0.038071
41.71 	0.037495 	4934 	0.037139
41.75 	0.040982 	4929 	0.040625
41.79 	0.037419 	4944 	0.036471
41.83 	0.036323 	4928 	0.035610
41.87 	0.043364 	4935 	0.042652
41.91 	0.044976 	4936 	0.044264
41.95 	0.040965 	4931 	0.040609
41.99 	0.039144 	4905 	0.038785
42.03 	0.037052 	4939 	0.036340
42.07 	0.038687 	4937 	0.038450
42.11 	0.036805 	4945 	0.036213
42.15 	0.036655 	4938 	0.036536
42.19 	0.037286 	4908 	0.036570
42.23 	0.035364 	4892 	0.035124
42.27 	0.041034 	4874 	0.040674
42.31 	0.036869 	4855 	0.036507
42.35 	0.039479 	4838 	0.039237
42.39 	0.039759 	4804 	0.039515
42.43 	0.035267 	4792 	0.034656
42.47 	0.037356 	4765 	0.037233
42.51 	0.040059 	4743 	0.039565
42.55 	0.038445 	4708 	0.038072
42.59 	0.036371 	4729 	0.036000
42.63 	0.035252 	4709 	0.035003
42.67 	0.034159 	4684 	0.033909
42.71 	0.034956 	4663 	0.034705
42.75 	0.036820 	4617 	0.036440
42.79 	0.036229 	4582 	0.036101
42.83 	0.035494 	4536 	0.035494
42.87 	0.044232 	4499 	0.043711
42.91 	0.040171 	4456 	0.040039
42.95 	0.033741 	4416 	0.033210
42.99 	0.038769 	4385 	0.038368
43.03 	0.037618 	4333 	0.037348
43.07 	0.039339 	4296 	0.039203
43.11 	0.037838 	4255 	0.037562
43.15 	0.036139 	4206 	0.036000
43.19 	0.037434 	4194 	0.036596
43.23 	0.033221 	4154 	0.032939
43.27 	0.040682 	4105 	0.040397
43.31 	0.035303 	4079 	0.034728
43.35 	0.039931 	4032 	0.039204
43.39 	0.035732 	4002 	0.035147
43.43 	0.032828 	3960 	0.032237
43.47 	0.037235 	3921 	0.037235
43.51 	0.036626 	3877 	0.036626
43.55 	0.039474 	2964 	0.039078
43.59 	0.034937 	1746 	0.033930
43.63 	0.035964 	1001 	0.035964
43.67 	0.025896 	502 	0.025896
43.71 	0.050209 	239 	0.050209
43.75 	0.062500 	16 	0.062500

File: 25SC_s1_0051.002.dat
#F C:\frames\spec\25SC_s1_0051.002
#C title =s:51 frm:2 25SC_s1
#C wavelength =0.15406

#S 1  fr_average C:\frames\spec\25SC_s1_0051.002 C:\win32app\speccom\mask.axs chi 0 180 0 360 0.02
#C 2 theta =0.000000 to 180 deg
#C   q   =0.000000 to 81.568 nm^-1
#C  chi  =0.000000 to 360 deg
#C collumns:
#C  1 position (2theta or chi in degrees)
#C  2 average intensity (sum of all counts in the region divided with number of pixels)
#C  3 Number of pixels in region)
#C  4 error (sum of sqrt(intensity) for all pixels divided by number)
#N 4
#L TTh  Int  N_pix  Err
32.99 	0.049180 	61 	0.049180
33.03 	0.070453 	1391 	0.068347
33.07 	0.064390 	2050 	0.064104
33.11 	0.056223 	2579 	0.055315
33.15 	0.050684 	2999 	0.049707
33.19 	0.059844 	3342 	0.057741
33.23 	0.052228 	3523 	0.051729
33.27 	0.060606 	3630 	0.058670
33.31 	0.052732 	3660 	0.052092
33.35 	0.054142 	3694 	0.053666
33.39 	0.051220 	3729 	0.050435
33.43 	0.060888 	3761 	0.060265
33.47 	0.057925 	3798 	0.057154
33.51 	0.056619 	3815 	0.055697
33.55 	0.057767 	3843 	0.056548
33.59 	0.059278 	3880 	0.058372
33.63 	0.052820 	3919 	0.052347
33.67 	0.049317 	3954 	0.048873
33.71 	0.055094 	3975 	0.054505
33.75 	0.056264 	3999 	0.054653
33.79 	0.065578 	4041 	0.064128
33.83 	0.054074 	4050 	0.053351
33.87 	0.050596 	4111 	0.049741
33.91 	0.056399 	4149 	0.055693
33.95 	0.059077 	4181 	0.058096
33.99 	0.062143 	4200 	0.061306
34.03 	0.047832 	4244 	0.046843
34.07 	0.063027 	4268 	0.061792
34.11 	0.053696 	4302 	0.052607
34.15 	0.055645 	4331 	0.054834
34.19 	0.058001 	4362 	0.057061
34.23 	0.054405 	4393 	0.053316
34.27 	0.056083 	4422 	0.054737
34.31 	0.058995 	4458 	0.058469
34.35 	0.055977 	4484 	0.055062
34.39 	0.063527 	4502 	0.061445
34.43 	0.059705 	4539 	0.058285
34.47 	0.057709 	4592 	0.056306
34.51 	0.050803 	4606 	0.050295
34.55 	0.061167 	4643 	0.059906
34.59 	0.054118 	4675 	0.053491
34.63 	0.051592 	4710 	0.051095
34.67 	0.049779 	4741 	0.049161
34.71 	0.057071 	4766 	0.056088
34.75 	0.051373 	4808 	0.050398
34.79 	0.053483 	4824 	0.052754
34.83 	0.052036 	4862 	0.051313
34.87 	0.057313 	4868 	0.055989
34.91 	0.056739 	4882 	0.056259
34.95 	0.050920 	4890 	0.050321
34.99 	0.046559 	4897 	0.046200
35.03 	0.052802 	4943 	0.051972
35.07 	0.054453 	4940 	0.053861
35.11 	0.050536 	4947 	0.049944
35.15 	0.053271 	4937 	0.052915
35.19 	0.056455 	4942 	0.055625
35.23 	0.056016 	4945 	0.055068
35.27 	0.054770 	4948 	0.053704
35.31 	0.053923 	4933 	0.053566
35.35 	0.052003 	4942 	0.051411
35.39 	0.052376 	4945 	0.052021
35.43 	0.056355 	4933 	0.055168
35.47 	0.055364 	4931 	0.054295
35.51 	0.047300 	4926 	0.046349
35.55 	0.050354 	4945 	0.049406
35.59 	0.060061 	4945 	0.058521
35.63 	0.060894 	4943 	0.059946
35.67 	0.059895 	4942 	0.058927
35.71 	0.052866 	4937 	0.051680
35.75 	0.060231 	4931 	0.059875
35.79 	0.049270 	4932 	0.048914
35.83 	0.054185 	4946 	0.053238
35.87 	0.051798 	4923 	0.050846
35.91 	0.053785 	4927 	0.052715
35.95 	0.050844 	4917 	0.049534
35.99 	0.055274 	4939 	0.054326
36.03 	0.053611 	4943 	0.052545
36.07 	0.054262 	4939 	0.053906
36.11 	0.048894 	4929 	0.048419
36.15 	0.056287 	4939 	0.055219
36.19 	0.054656 	4940 	0.054182
36.23 	0.048835 	4935 	0.048241
36.27 	0.057056 	4925 	0.055866
36.31 	0.049919 	4928 	0.049087
36.35 	0.052546 	4929 	0.052071
36.39 	0.053241 	4921 	0.052884
36.43 	0.056412 	4928 	0.055699
36.47 	0.056726 	4936 	0.055777
36.51 	0.046625 	4933 	0.045675
36.55 	0.052770 	4927 	0.051463
36.59 	0.054262 	4939 	0.053669
36.63 	0.048063 	4931 	0.047588
36.67 	0.057809 	4930 	0.056383
36.71 	0.055070 	4921 	0.054118
36.75 	0.044701 	4944 	0.043871
36.79 	0.052835 	4921 	0.051882
36.83 	0.054730 	4915 	0.053896
36.87 	0.054814 	4944 	0.054577
36.91 	0.054240 	4941 	0.053884
36.95 	0.054328 	4933 	0.053734
36.99 	0.050051 	4935 	0.049338
37.03 	0.047319 	4924 	0.046486
37.07 	0.051266 	4935 	0.050436
37.11 	0.046403 	4935 	0.045691
37.15 	0.048075 	4909 	0.047478
37.19 	0.055838 	4925 	0.054361
37.23 	0.057747 	4918 	0.055960
37.27 	0.052718 	4894 	0.052359
37.31 	0.053698 	4935 	0.052274
37.35 	0.051235 	4938 	0.050267
37.39 	0.049686 	4931 	0.048854
37.43 	0.049473 	4932 	0.048523
37.47 	0.053966 	4929 	0.053016
37.51 	0.052909 	4933 	0.052078
37.55 	0.049087 	4930 	0.048493
37.59 	0.050458 	4915 	0.050100
37.63 	0.049604 	4919 	0.049008
37.67 	0.054649 	4904 	0.053813
37.71 	0.052546 	4929 	0.052190
37.75 	0.051215 	4940 	0.050503
37.79 	0.048276 	4930 	0.047325
37.83 	0.050203 	4920 	0.049350
37.87 	0.055072 	4939 	0.054479
37.91 	0.052333 	4930 	0.051620
37.95 	0.049990 	4921 	0.049633
37.99 	0.054357 	4912 	0.052667
38.03 	0.046649 	4909 	0.046291
38.07 	0.051945 	4909 	0.051568
38.11 	0.052280 	4935 	0.050974
38.15 	0.052257 	4918 	0.051781
38.19 	0.045030 	4930 	0.044436
38.23 	0.047995 	4938 	0.046809
38.27 	0.054970 	4930 	0.054138
38.31 	0.053379 	4927 	0.052666
38.35 	0.059659 	4928 	0.059065
38.39 	0.058668 	4909 	0.057713
38.43 	0.056957 	4916 	0.055884
38.47 	0.062156 	4907 	0.061082
38.51 	0.063869 	4932 	0.063275
38.55 	0.062804 	4936 	0.061736
38.59 	0.054630 	4924 	0.053917
38.63 	0.049553 	4924 	0.049196
38.67 	0.058740 	4937 	0.057297
38.71 	0.049756 	4924 	0.048448
38.75 	0.047493 	4927 	0.046899
38.79 	0.046615 	4934 	0.046378
38.83 	0.043708 	4919 	0.043351
38.87 	0.046223 	4911 	0.045388
38.91 	0.048542 	4903 	0.047586
38.95 	0.047580 	4918 	0.047223
38.99 	0.046384 	4937 	0.045554
39.03 	0.043981 	4934 	0.043743
39.07 	0.054224 	4924 	0.053372
39.11 	0.043399 	4931 	0.042686
39.15 	0.047813 	4915 	0.046740
39.19 	0.038031 	4917 	0.037436
39.23 	0.042437 	4925 	0.041723
39.27 	0.041141 	4910 	0.040663
39.31 	0.039926 	4884 	0.039686
39.35 	0.044782 	4935 	0.044189
39.39 	0.046663 	4929 	0.046425
39.43 	0.039935 	4933 	0.039341
39.47 	0.046313 	4923 	0.046075
39.51 	0.037977 	4924 	0.037382
39.55 	0.047367 	4919 	0.047010
39.59 	0.048046 	4912 	0.047092
39.63 	0.043275 	4922 	0.042918
39.67 	0.040912 	4913 	0.040554
39.71 	0.041471 	4895 	0.040753
39.75 	0.043222 	4928 	0.043104
39.79 	0.047097 	4926 	0.046146
39.83 	0.042562 	4934 	0.040880
39.87 	0.042437 	4925 	0.041961
39.91 	0.041853 	4922 	0.041496
39.95 	0.049237 	4915 	0.048403
39.99 	0.041971 	4932 	0.041496
40.03 	0.039164 	4928 	0.038807
40.07 	0.043063 	4923 	0.042349
40.11 	0.044752 	4916 	0.044037
40.15 	0.042337 	4913 	0.041740
40.19 	0.040779 	4929 	0.040304
40.23 	0.043187 	4932 	0.042831
40.27 	0.040713 	4937 	0.040120
40.31 	0.037862 	4939 	0.037269
40.35 	0.041269 	4919 	0.041030
40.39 	0.041574 	4931 	0.040861
40.43 	0.044291 	4922 	0.043696
40.47 	0.044327 	4918 	0.043612
40.51 	0.035758 	4922 	0.035282
40.55 	0.044010 	4908 	0.043413
40.59 	0.037270 	4937 	0.036795
40.63 	0.045436 	4930 	0.044842
40.67 	0.040957 	4932 	0.040601
40.71 	0.041768 	4932 	0.041293
40.75 	0.030825 	4931 	0.030231
40.79 	0.040211 	4924 	0.039616
40.83 	0.042208 	4928 	0.041732
40.87 	0.042817 	4928 	0.042103
40.91 	0.039407 	4923 	0.038931
40.95 	0.040505 	4913 	0.040028
40.99 	0.042242 	4924 	0.041409
41.03 	0.040163 	4905 	0.039327
41.07 	0.043813 	4930 	0.043219
41.11 	0.040324 	4935 	0.039849
41.15 	0.040680 	4941 	0.040324
41.19 	0.044828 	4930 	0.044590
41.23 	0.038064 	4939 	0.037353
41.27 	0.041168 	4931 	0.040455
41.31 	0.043584 	4933 	0.042990
41.35 	0.041717 	4938 	0.041361
41.39 	0.038111 	4933 	0.037517
41.43 	0.039156 	4929 	0.038562
41.47 	0.042834 	4926 	0.042596
41.51 	0.044332 	4940 	0.043601
41.55 	0.039311 	4935 	0.038361
41.59 	0.040949 	4933 	0.040592
41.63 	0.036655 	4938 	0.035943
41.67 	0.039879 	4940 	0.039404
41.71 	0.043981 	4934 	0.043387
41.75 	0.038750 	4929 	0.038037
41.79 	0.036003 	4944 	0.035648
41.83 	0.032468 	4928 	0.032349
41.87 	0.043769 	4935 	0.043294
41.91 	0.038898 	4936 	0.038305
41.95 	0.037923 	4931 	0.036973
41.99 	0.040979 	4905 	0.040481
42.03 	0.039077 	4939 	0.038602
42.07 	0.036864 	4937 	0.036271
42.11 	0.041860 	4945 	0.041150
42.15 	0.039085 	4938 	0.038492
42.19 	0.035452 	4908 	0.035333
42.23 	0.037408 	4892 	0.037288
42.27 	0.039393 	4874 	0.038551
42.31 	0.033368 	4855 	0.033368
42.35 	0.042993 	4838 	0.042509
42.39 	0.033930 	4804 	0.033442
42.43 	0.034015 	4792 	0.033771
42.47 	0.038195 	4765 	0.037703
42.51 	0.038372 	4743 	0.038002
42.55 	0.037383 	4708 	0.036761
42.59 	0.031719 	4729 	0.031348
42.63 	0.034615 	4709 	0.033993
42.67 	0.038856 	4684 	0.038230
42.71 	0.037744 	4663 	0.037116
42.75 	0.033138 	4617 	0.032758
42.79 	0.035792 	4582 	0.035409
42.83 	0.041446 	4536 	0.041059
42.87 	0.033563 	4499 	0.032912
42.91 	0.038824 	4456 	0.037904
42.95 	0.039402 	4416 	0.038584
42.99 	0.038997 	4385 	0.038462
43.03 	0.033695 	4333 	0.033425
43.07 	0.032356 	4296 	0.031947
43.11 	0.035723 	4255 	0.035585
43.15 	0.037565 	4206 	0.037287
43.19 	0.038865 	4194 	0.038167
43.23 	0.036591 	4154 	0.036591
43.27 	0.039464 	4105 	0.039036
43.31 	0.036529 	4079 	0.035954
43.35 	0.036210 	4032 	0.036210
43.39 	0.038731 	4002 	0.037706
43.43 	0.033333 	3960 	0.033037
43.47 	0.029329 	3921 	0.029180
43.51 	0.031210 	3877 	0.030303
43.55 	0.032389 	2964 	0.032191
43.59 	0.032646 	1746 	0.032311
43.63 	0.032967 	1001 	0.032967
43.67 	0.055777 	502 	0.053443
43.71 	0.037657 	239 	0.037657
43.75 	0.125000 	16 	0.125000