Folder: Bessy-II-KMC-II-insitu-sin2psi/Example_Data (part 10)

File: 25SC_s1_0004.002.dat
#F C:\frames\spec\25SC_s1_0004.002
#C title =s:4 frm:2 25SC_s1
#C wavelength =0.15406

#S 1  fr_average C:\frames\spec\25SC_s1_0004.002 C:\win32app\speccom\mask.axs chi 0 180 0 360 0.02
#C 2 theta =0.000000 to 180 deg
#C   q   =0.000000 to 81.568 nm^-1
#C  chi  =0.000000 to 360 deg
#C collumns:
#C  1 position (2theta or chi in degrees)
#C  2 average intensity (sum of all counts in the region divided with number of pixels)
#C  3 Number of pixels in region)
#C  4 error (sum of sqrt(intensity) for all pixels divided by number)
#N 4
#L TTh  Int  N_pix  Err
32.99 	0.032787 	61 	0.032787
33.03 	0.051761 	1391 	0.050919
33.07 	0.060976 	2050 	0.059547
33.11 	0.056999 	2579 	0.055863
33.15 	0.054351 	2999 	0.053765
33.19 	0.057451 	3342 	0.056224
33.23 	0.057621 	3523 	0.056624
33.27 	0.054270 	3630 	0.053302
33.31 	0.059016 	3660 	0.057736
33.35 	0.054683 	3694 	0.053890
33.39 	0.052025 	3729 	0.051082
33.43 	0.061686 	3761 	0.060284
33.47 	0.061875 	3798 	0.060795
33.51 	0.060550 	3815 	0.059783
33.55 	0.059329 	3843 	0.058414
33.59 	0.061856 	3880 	0.060497
33.63 	0.054861 	3919 	0.054089
33.67 	0.057410 	3954 	0.056373
33.71 	0.056604 	3975 	0.055277
33.75 	0.062016 	3999 	0.060844
33.79 	0.066568 	4041 	0.065553
33.83 	0.062222 	4050 	0.060776
33.87 	0.061299 	4111 	0.060871
33.91 	0.061702 	4149 	0.060854
33.95 	0.062186 	4181 	0.061486
33.99 	0.056190 	4200 	0.054773
34.03 	0.059849 	4244 	0.059159
34.07 	0.056701 	4268 	0.055740
34.11 	0.060669 	4302 	0.059852
34.15 	0.060032 	4331 	0.059063
34.19 	0.058230 	4362 	0.056753
34.23 	0.061234 	4393 	0.060700
34.27 	0.058118 	4422 	0.057456
34.31 	0.063930 	4458 	0.063142
34.35 	0.058653 	4484 	0.057216
34.39 	0.060418 	4502 	0.059377
34.43 	0.053536 	4539 	0.052891
34.47 	0.060105 	4592 	0.059849
34.51 	0.060790 	4606 	0.059518
34.55 	0.061383 	4643 	0.060121
34.59 	0.060749 	4675 	0.059621
34.63 	0.056688 	4710 	0.056066
34.67 	0.058637 	4741 	0.057525
34.71 	0.060848 	4766 	0.060110
34.75 	0.056988 	4808 	0.056014
34.79 	0.055348 	4824 	0.054498
34.83 	0.056355 	4862 	0.055271
34.87 	0.059367 	4868 	0.058645
34.91 	0.061245 	4882 	0.060046
34.95 	0.061554 	4890 	0.060356
34.99 	0.055340 	4897 	0.054503
35.03 	0.053813 	4943 	0.052747
35.07 	0.061741 	4940 	0.060279
35.11 	0.054174 	4947 	0.053701
35.15 	0.055297 	4937 	0.054565
35.19 	0.057062 	4942 	0.056114
35.23 	0.057836 	4945 	0.056533
35.27 	0.064470 	4948 	0.063523
35.31 	0.053112 	4933 	0.052399
35.35 	0.054634 	4942 	0.054041
35.39 	0.050556 	4945 	0.050201
35.43 	0.056152 	4933 	0.055796
35.47 	0.062868 	4931 	0.062274
35.51 	0.058465 	4926 	0.057633
35.55 	0.055005 	4945 	0.053939
35.59 	0.057230 	4945 	0.055315
35.63 	0.056848 	4943 	0.056019
35.67 	0.059692 	4942 	0.058981
35.71 	0.056107 	4937 	0.055395
35.75 	0.055567 	4931 	0.054498
35.79 	0.058394 	4932 	0.057206
35.83 	0.058633 	4946 	0.057666
35.87 	0.061142 	4923 	0.059833
35.91 	0.058047 	4927 	0.056977
35.95 	0.054708 	4917 	0.053855
35.99 	0.056894 	4939 	0.055708
36.03 	0.064536 	4943 	0.062719
36.07 	0.056692 	4939 	0.055506
36.11 	0.056198 	4929 	0.055128
36.15 	0.058311 	4939 	0.057363
36.19 	0.064575 	4940 	0.062895
36.23 	0.058967 	4935 	0.057542
36.27 	0.055228 	4925 	0.053920
36.31 	0.059253 	4928 	0.057827
36.35 	0.062893 	4929 	0.061823
36.39 	0.057712 	4921 	0.056879
36.43 	0.058036 	4928 	0.057204
36.47 	0.063209 	4936 	0.062378
36.51 	0.061423 	4933 	0.060829
36.55 	0.057642 	4927 	0.056572
36.59 	0.059526 	4939 	0.058340
36.63 	0.058406 	4931 	0.057574
36.67 	0.061663 	4930 	0.061307
36.71 	0.059541 	4921 	0.058231
36.75 	0.056230 	4944 	0.055163
36.79 	0.057509 	4921 	0.056398
36.83 	0.060427 	4915 	0.059235
36.87 	0.057848 	4944 	0.056881
36.91 	0.054645 	4941 	0.054289
36.95 	0.057977 	4933 	0.057027
36.99 	0.065451 	4935 	0.064026
37.03 	0.059301 	4924 	0.058350
37.07 	0.056940 	4935 	0.055872
37.11 	0.052280 	4935 	0.051805
37.15 	0.057649 	4909 	0.057053
37.19 	0.060914 	4925 	0.059367
37.23 	0.056120 	4918 	0.055287
37.27 	0.056191 	4894 	0.055473
37.31 	0.059777 	4935 	0.058946
37.35 	0.058323 	4938 	0.057374
37.39 	0.058406 	4931 	0.056980
37.43 	0.054136 	4932 	0.054017
37.47 	0.056401 	4929 	0.055094
37.51 	0.051287 	4933 	0.050694
37.55 	0.057201 	4930 	0.056250
37.59 	0.056562 	4915 	0.055708
37.63 	0.054279 	4919 	0.053684
37.67 	0.049144 	4904 	0.048307
37.71 	0.055589 	4929 	0.054520
37.75 	0.050202 	4940 	0.049728
37.79 	0.050710 	4930 	0.050116
37.83 	0.054472 	4920 	0.053638
37.87 	0.054262 	4939 	0.053294
37.91 	0.055578 	4930 	0.054390
37.95 	0.055477 	4921 	0.054881
37.99 	0.054560 	4912 	0.053706
38.03 	0.057446 	4909 	0.056849
38.07 	0.054186 	4909 	0.053470
38.11 	0.058561 	4935 	0.057730
38.15 	0.058560 	4918 	0.058084
38.19 	0.052535 	4930 	0.051704
38.23 	0.055691 	4938 	0.054979
38.27 	0.058824 	4930 	0.058111
38.31 	0.060280 	4927 	0.059567
38.35 	0.057427 	4928 	0.056357
38.39 	0.067223 	4909 	0.066507
38.43 	0.059601 	4916 	0.058152
38.47 	0.068474 	4907 	0.066802
38.51 	0.059813 	4932 	0.058745
38.55 	0.068679 	4936 	0.067967
38.59 	0.066003 	4924 	0.065052
38.63 	0.065800 	4924 	0.064234
38.67 	0.057525 	4937 	0.056220
38.71 	0.058286 	4924 	0.057096
38.75 	0.052770 	4927 	0.051700
38.79 	0.052290 	4934 	0.051459
38.83 	0.052653 	4919 	0.051938
38.87 	0.047852 	4911 	0.047732
38.91 	0.046910 	4903 	0.046313
38.95 	0.050630 	4918 	0.049797
38.99 	0.049828 	4937 	0.048997
39.03 	0.046615 	4934 	0.046378
39.07 	0.050569 	4924 	0.049855
39.11 	0.049280 	4931 	0.048567
39.15 	0.049237 	4915 	0.048999
39.19 	0.049624 	4917 	0.049385
39.23 	0.050761 	4925 	0.050048
39.27 	0.045418 	4910 	0.044821
39.31 	0.043817 	4884 	0.043217
39.35 	0.047214 	4935 	0.046502
39.39 	0.048691 	4929 	0.047365
39.43 	0.050071 	4933 	0.049358
39.47 	0.048141 	4923 	0.048022
39.51 	0.045288 	4924 	0.044694
39.55 	0.044521 	4919 	0.043807
39.59 	0.048249 	4912 	0.047534
39.63 	0.046323 	4922 	0.045847
39.67 	0.040098 	4913 	0.039502
39.71 	0.048621 	4895 	0.048142
39.75 	0.048498 	4928 	0.047785
39.79 	0.049330 	4926 	0.048498
39.83 	0.044994 	4934 	0.044400
39.87 	0.042843 	4925 	0.042129
39.91 	0.050996 	4922 	0.050162
39.95 	0.049237 	4915 	0.048522
39.99 	0.048459 	4932 	0.047509
40.03 	0.046875 	4928 	0.046162
40.07 	0.045094 	4923 	0.044500
40.11 	0.050854 	4916 	0.049901
40.15 	0.046000 	4913 	0.045523
40.19 	0.041185 	4929 	0.040828
40.23 	0.045418 	4932 	0.044824
40.27 	0.045574 	4937 	0.045100
40.31 	0.044341 	4939 	0.043392
40.35 	0.047571 	4919 	0.047213
40.39 	0.044210 	4931 	0.043379
40.43 	0.041243 	4922 	0.040529
40.47 	0.045140 	4918 	0.044545
40.51 	0.045713 	4922 	0.045237
40.55 	0.043806 	4908 	0.043329
40.59 	0.045372 	4937 	0.044897
40.63 	0.044016 	4930 	0.043422
40.67 	0.043390 	4932 	0.042915
40.71 	0.042174 	4932 	0.041817
40.75 	0.044413 	4931 	0.043938
40.79 	0.043461 	4924 	0.043223
40.83 	0.044643 	4928 	0.044286
40.87 	0.041193 	4928 	0.040718
40.91 	0.038594 	4923 	0.037880
40.95 	0.050071 	4913 	0.048998
40.99 	0.045695 	4924 	0.045338
41.03 	0.048318 	4905 	0.047124
41.07 	0.041785 	4930 	0.041310
41.11 	0.042553 	4935 	0.041960
41.15 	0.046549 	4941 	0.045344
41.19 	0.040974 	4930 	0.040855
41.23 	0.042519 	4939 	0.042163
41.27 	0.045427 	4931 	0.044952
41.31 	0.043179 	4933 	0.042822
41.35 	0.038477 	4938 	0.038358
41.39 	0.045408 	4933 	0.044933
41.43 	0.040576 	4929 	0.040101
41.47 	0.042631 	4926 	0.042155
41.51 	0.046154 	4940 	0.046035
41.55 	0.042958 	4935 	0.042246
41.59 	0.045206 	4933 	0.044850
41.63 	0.045160 	4938 	0.044448
41.67 	0.045142 	4940 	0.044430
41.71 	0.043170 	4934 	0.042695
41.75 	0.041388 	4929 	0.041150
41.79 	0.043083 	4944 	0.042372
41.83 	0.041802 	4928 	0.041089
41.87 	0.043566 	4935 	0.042735
41.91 	0.043963 	4936 	0.043369
41.95 	0.039951 	4931 	0.039714
41.99 	0.042610 	4905 	0.041654
42.03 	0.039482 	4939 	0.038770
42.07 	0.039093 	4937 	0.038974
42.11 	0.042669 	4945 	0.041959
42.15 	0.041110 	4938 	0.040873
42.19 	0.041769 	4908 	0.041172
42.23 	0.046402 	4892 	0.045923
42.27 	0.042881 	4874 	0.042159
42.31 	0.042636 	4855 	0.042274
42.35 	0.039479 	4838 	0.038995
42.39 	0.039134 	4804 	0.038260
42.43 	0.040902 	4792 	0.040290
42.47 	0.041553 	4765 	0.041061
42.51 	0.040270 	4743 	0.039776
42.55 	0.035047 	4708 	0.034425
42.59 	0.042504 	4729 	0.042132
42.63 	0.037163 	4709 	0.037038
42.67 	0.038856 	4684 	0.038480
42.71 	0.037958 	4663 	0.037582
42.75 	0.038986 	4617 	0.038225
42.79 	0.038848 	4582 	0.038336
42.83 	0.037478 	4536 	0.037091
42.87 	0.036897 	4499 	0.036637
42.91 	0.038824 	4456 	0.038430
42.95 	0.040534 	4416 	0.040402
42.99 	0.032611 	4385 	0.032210
43.03 	0.036464 	4333 	0.036059
43.07 	0.037011 	4296 	0.036466
43.11 	0.044418 	4255 	0.044005
43.15 	0.040894 	4206 	0.040337
43.19 	0.048164 	4194 	0.047605
43.23 	0.042610 	4154 	0.041904
43.27 	0.039951 	4105 	0.039809
43.31 	0.041677 	4079 	0.041246
43.35 	0.038442 	4032 	0.037861
43.39 	0.039730 	4002 	0.038998
43.43 	0.037121 	3960 	0.036677
43.47 	0.041571 	3921 	0.041123
43.51 	0.041527 	3877 	0.041527
43.55 	0.047233 	2964 	0.046213
43.59 	0.034364 	1746 	0.033693
43.63 	0.041958 	1001 	0.041958
43.67 	0.043825 	502 	0.042658
43.71 	0.016736 	239 	0.016736
43.75 	0.000000 	16 	0.000000

File: 25SC_s1_0004.003.dat
#F C:\frames\spec\25SC_s1_0004.003
#C title =s:4 frm:3 25SC_s1
#C wavelength =0.15406

#S 1  fr_average C:\frames\spec\25SC_s1_0004.003 C:\win32app\speccom\mask.axs chi 0 180 0 360 0.02
#C 2 theta =0.000000 to 180 deg
#C   q   =0.000000 to 81.568 nm^-1
#C  chi  =0.000000 to 360 deg
#C collumns:
#C  1 position (2theta or chi in degrees)
#C  2 average intensity (sum of all counts in the region divided with number of pixels)
#C  3 Number of pixels in region)
#C  4 error (sum of sqrt(intensity) for all pixels divided by number)
#N 4
#L TTh  Int  N_pix  Err
32.99 	0.065574 	61 	0.065574
33.03 	0.071891 	1391 	0.070627
33.07 	0.057561 	2050 	0.056418
33.11 	0.069019 	2579 	0.067202
33.15 	0.063021 	2999 	0.061458
33.19 	0.057451 	3342 	0.056048
33.23 	0.056486 	3523 	0.054823
33.27 	0.053444 	3630 	0.051830
33.31 	0.062295 	3660 	0.060535
33.35 	0.058473 	3694 	0.056887
33.39 	0.060338 	3729 	0.059081
33.43 	0.062217 	3761 	0.061283
33.47 	0.061875 	3798 	0.060641
33.51 	0.056619 	3815 	0.055979
33.55 	0.059589 	3843 	0.057887
33.59 	0.063918 	3880 	0.062710
33.63 	0.060985 	3919 	0.060088
33.67 	0.058169 	3954 	0.056515
33.71 	0.060377 	3975 	0.059493
33.75 	0.056514 	3999 	0.055049
33.79 	0.061371 	4041 	0.060211
33.83 	0.059259 	4050 	0.057234
33.87 	0.067623 	4111 	0.065629
33.91 	0.057845 	4149 	0.057139
33.95 	0.061947 	4181 	0.061246
33.99 	0.067143 	4200 	0.065888
34.03 	0.062677 	4244 	0.061849
34.07 	0.052249 	4268 	0.050854
34.11 	0.061832 	4302 	0.061015
34.15 	0.061187 	4331 	0.060105
34.19 	0.059835 	4362 	0.059029
34.23 	0.054860 	4393 	0.053527
34.27 	0.066938 	4422 	0.065481
34.31 	0.052939 	4458 	0.052282
34.35 	0.057315 	4484 	0.056792
34.39 	0.055975 	4502 	0.055194
34.43 	0.065433 	4539 	0.064121
34.47 	0.060105 	4592 	0.058553
34.51 	0.058619 	4606 	0.057983
34.55 	0.059014 	4643 	0.057247
34.59 	0.053904 	4675 	0.053027
34.63 	0.061359 	4710 	0.060115
34.67 	0.064543 	4741 	0.063555
34.71 	0.053714 	4766 	0.052853
34.75 	0.055116 	4808 	0.054385
34.79 	0.059701 	4824 	0.058366
34.83 	0.062320 	4862 	0.061356
34.87 	0.056286 	4868 	0.055564
34.91 	0.059402 	4882 	0.058082
34.95 	0.058078 	4890 	0.057119
34.99 	0.062896 	4897 	0.061819
35.03 	0.051993 	4943 	0.050808
35.07 	0.054453 	4940 	0.053742
35.11 	0.063675 	4947 	0.062846
35.15 	0.057322 	4937 	0.056373
35.19 	0.063132 	4942 	0.062184
35.23 	0.058443 	4945 	0.057239
35.27 	0.058407 	4948 	0.058052
35.31 	0.055747 	4933 	0.054421
35.35 	0.060299 	4942 	0.059707
35.39 	0.055410 	4945 	0.054343
35.43 	0.061423 	4933 	0.060592
35.47 	0.059420 	4931 	0.058588
35.51 	0.060698 	4926 	0.059271
35.55 	0.059050 	4945 	0.057628
35.59 	0.057027 	4945 	0.055606
35.63 	0.061703 	4943 	0.061111
35.67 	0.057871 	4942 	0.056923
35.71 	0.058335 	4937 	0.056793
35.75 	0.063273 	4931 	0.061966
35.79 	0.055353 	4932 	0.054521
35.83 	0.061059 	4946 	0.059638
35.87 	0.058704 	4923 	0.057495
35.91 	0.064136 	4927 	0.062829
35.95 	0.060403 	4917 	0.059569
35.99 	0.057299 	4939 	0.056350
36.03 	0.055230 	4943 	0.054163
36.07 	0.057906 	4939 	0.056820
36.11 	0.058024 	4929 	0.056835
36.15 	0.059729 	4939 	0.059017
36.19 	0.063563 	4940 	0.062614
36.23 	0.067072 	4935 	0.065747
36.27 	0.062132 	4925 	0.060943
36.31 	0.063312 	4928 	0.062242
36.35 	0.063096 	4929 	0.062858
36.39 	0.054664 	4921 	0.053592
36.43 	0.058644 	4928 	0.058169
36.47 	0.058549 	4936 	0.057363
36.51 	0.055950 	4933 	0.055593
36.55 	0.059265 	4927 	0.058314
36.59 	0.059121 	4939 	0.058291
36.63 	0.058000 	4931 	0.056812
36.67 	0.061258 	4930 	0.060169
36.71 	0.052428 	4921 	0.051476
36.75 	0.058657 	4944 	0.057828
36.79 	0.057102 	4921 	0.056388
36.83 	0.059613 	4915 	0.058422
36.87 	0.061893 	4944 	0.061419
36.91 	0.061526 	4941 	0.060815
36.95 	0.055139 	4933 	0.054308
36.99 	0.060790 	4935 	0.059722
37.03 	0.059301 	4924 	0.058469
37.07 	0.050861 	4935 	0.050386
37.11 	0.051064 	4935 	0.050708
37.15 	0.062946 	4909 	0.062349
37.19 	0.055431 	4925 	0.054361
37.23 	0.054697 	4918 	0.053625
37.27 	0.056600 	4894 	0.055383
37.31 	0.060790 	4935 	0.059959
37.35 	0.054678 	4938 	0.053966
37.39 	0.050902 	4931 	0.050308
37.43 	0.059813 	4932 	0.058863
37.47 	0.056198 	4929 	0.054772
37.51 	0.047233 	4933 	0.046402
37.55 	0.049290 	4930 	0.048201
37.59 	0.060427 	4915 	0.059474
37.63 	0.049400 	4919 	0.048805
37.67 	0.053018 	4904 	0.052540
37.71 	0.057212 	4929 	0.056262
37.75 	0.053239 	4940 	0.053002
37.79 	0.045233 	4930 	0.044758
37.83 	0.048577 	4920 	0.048339
37.87 	0.053047 	4939 	0.052454
37.91 	0.059026 	4930 	0.058076
37.95 	0.055070 	4921 	0.054118
37.99 	0.051507 	4912 	0.050910
38.03 	0.057242 	4909 	0.056406
38.07 	0.058668 	4909 	0.057952
38.11 	0.053901 	4935 	0.052813
38.15 	0.054290 	4918 	0.053179
38.19 	0.051724 	4930 	0.051110
38.23 	0.058526 	4938 	0.057063
38.27 	0.054970 	4930 	0.054019
38.31 	0.054597 	4927 	0.054003
38.35 	0.058847 	4928 	0.057421
38.39 	0.054797 	4909 	0.054201
38.43 	0.060618 	4916 	0.059427
38.47 	0.064602 	4907 	0.063885
38.51 	0.060219 	4932 	0.059269
38.55 	0.065640 	4936 	0.064453
38.59 	0.056052 	4924 	0.054862
38.63 	0.066003 	4924 	0.064695
38.67 	0.053879 	4937 	0.053048
38.71 	0.065800 	4924 	0.064492
38.75 	0.060077 	4927 	0.059483
38.79 	0.056546 	4934 	0.055478
38.83 	0.050417 	4919 	0.050059
38.87 	0.050906 	4911 	0.050052
38.91 	0.050581 	4903 	0.049506
38.95 	0.046157 	4918 	0.045561
38.99 	0.049625 	4937 	0.048795
39.03 	0.051277 	4934 	0.050446
39.07 	0.048538 	4924 	0.047705
39.11 	0.047658 	4931 	0.047182
39.15 	0.052289 	4915 	0.051812
39.19 	0.051251 	4917 	0.050516
39.23 	0.049137 	4925 	0.048542
39.27 	0.052953 	4910 	0.052357
39.31 	0.045250 	4884 	0.044650
39.35 	0.045390 	4935 	0.044797
39.39 	0.048083 	4929 	0.046894
39.43 	0.045814 	4933 	0.045220
39.47 	0.046923 	4923 	0.046566
39.51 	0.051381 	4924 	0.050667
39.55 	0.047367 	4919 	0.046534
39.59 	0.047638 	4912 	0.047161
39.63 	0.049167 	4922 	0.048929
39.67 	0.050885 	4913 	0.050289
39.71 	0.047395 	4895 	0.046677
39.75 	0.046063 	4928 	0.045469
39.79 	0.050345 	4926 	0.049751
39.83 	0.048642 	4934 	0.047930
39.87 	0.051168 	4925 	0.050811
39.91 	0.049980 	4922 	0.049623
39.95 	0.045371 	4915 	0.044895
39.99 	0.047648 	4932 	0.046104
40.03 	0.048295 	4928 	0.048058
40.07 	0.053220 	4923 	0.052506
40.11 	0.051465 	4916 	0.051345
40.15 	0.051089 	4913 	0.049897
40.19 	0.045648 	4929 	0.045292
40.23 	0.044201 	4932 	0.043607
40.27 	0.051448 	4937 	0.050450
40.31 	0.043936 	4939 	0.043106
40.35 	0.049197 	4919 	0.048602
40.39 	0.040965 	4931 	0.040371
40.43 	0.045713 	4922 	0.045356
40.47 	0.049410 	4918 	0.048934
40.51 	0.043275 	4922 	0.043037
40.55 	0.042584 	4908 	0.041629
40.59 	0.046992 	4937 	0.046517
40.63 	0.051927 	4930 	0.050581
40.67 	0.051703 	4932 	0.050397
40.71 	0.048662 	4932 	0.047949
40.75 	0.041979 	4931 	0.041742
40.79 	0.051584 	4924 	0.051108
40.83 	0.047890 	4928 	0.047176
40.87 	0.048701 	4928 	0.048345
40.91 	0.048141 	4923 	0.046832
40.95 	0.046000 	4913 	0.045762
40.99 	0.046507 	4924 	0.046269
41.03 	0.046687 	4905 	0.045951
41.07 	0.045639 	4930 	0.045045
41.11 	0.048632 	4935 	0.048157
41.15 	0.044525 	4941 	0.044051
41.19 	0.046045 	4930 	0.045451
41.23 	0.042721 	4939 	0.042247
41.27 	0.044818 	4931 	0.044343
41.31 	0.047638 	4933 	0.047401
41.35 	0.040907 	4938 	0.040195
41.39 	0.042976 	4933 	0.041907
41.43 	0.044837 	4929 	0.044361
41.47 	0.043240 	4926 	0.043002
41.51 	0.045344 	4940 	0.044633
41.55 	0.048430 	4935 	0.048073
41.59 	0.048044 	4933 	0.047688
41.63 	0.045768 	4938 	0.045174
41.67 	0.039069 	4940 	0.038832
41.71 	0.042764 	4934 	0.042408
41.75 	0.044837 	4929 	0.043886
41.79 	0.047532 	4944 	0.047295
41.83 	0.045657 	4928 	0.044469
41.87 	0.045998 	4935 	0.045761
41.91 	0.046596 	4936 	0.045884
41.95 	0.041371 	4931 	0.041252
41.99 	0.039551 	4905 	0.039432
42.03 	0.044746 	4939 	0.044371
42.07 	0.044359 	4937 	0.044122
42.11 	0.044085 	4945 	0.043374
42.15 	0.041717 	4938 	0.041480
42.19 	0.044214 	4908 	0.043497
42.23 	0.047629 	4892 	0.047030
42.27 	0.043701 	4874 	0.042860
42.31 	0.045108 	4855 	0.044384
42.35 	0.041753 	4838 	0.041147
42.39 	0.047877 	4804 	0.047145
42.43 	0.041528 	4792 	0.041039
42.47 	0.043652 	4765 	0.043529
42.51 	0.041957 	4743 	0.041216
42.55 	0.043118 	4708 	0.042620
42.59 	0.042504 	4729 	0.042132
42.63 	0.041410 	4709 	0.041037
42.67 	0.039069 	4684 	0.038694
42.71 	0.042891 	4663 	0.042765
42.75 	0.041585 	4617 	0.041332
42.79 	0.044959 	4582 	0.044319
42.83 	0.042549 	4536 	0.042161
42.87 	0.035786 	4499 	0.035265
42.91 	0.046679 	4456 	0.046284
42.95 	0.038270 	4416 	0.037739
42.99 	0.042873 	4385 	0.042339
43.03 	0.044542 	4333 	0.043596
43.07 	0.045391 	4296 	0.044982
43.11 	0.042068 	4255 	0.041380
43.15 	0.041845 	4206 	0.041566
43.19 	0.047449 	4194 	0.046448
43.23 	0.042610 	4154 	0.042327
43.27 	0.037515 	4105 	0.036659
43.31 	0.038735 	4079 	0.038304
43.35 	0.038442 	4032 	0.038297
43.39 	0.038231 	4002 	0.037499
43.43 	0.044697 	3960 	0.044105
43.47 	0.043101 	3921 	0.042504
43.51 	0.042301 	3877 	0.042301
43.55 	0.034750 	2964 	0.034750
43.59 	0.045246 	1746 	0.045246
43.63 	0.040959 	1001 	0.040959
43.67 	0.049801 	502 	0.049801
43.71 	0.029289 	239 	0.026838
43.75 	0.000000 	16 	0.000000