Folder: Bessy-II-KMC-II-insitu-sin2psi/Example_Data (part 40)

File: 25SC_s1_0016.002.dat
#F C:\frames\spec\25SC_s1_0016.002
#C title =s:16 frm:2 25SC_s1
#C wavelength =0.15406

#S 1  fr_average C:\frames\spec\25SC_s1_0016.002 C:\win32app\speccom\mask.axs chi 0 180 0 360 0.02
#C 2 theta =0.000000 to 180 deg
#C   q   =0.000000 to 81.568 nm^-1
#C  chi  =0.000000 to 360 deg
#C collumns:
#C  1 position (2theta or chi in degrees)
#C  2 average intensity (sum of all counts in the region divided with number of pixels)
#C  3 Number of pixels in region)
#C  4 error (sum of sqrt(intensity) for all pixels divided by number)
#N 4
#L TTh  Int  N_pix  Err
32.99 	0.065574 	61 	0.065574
33.03 	0.051042 	1391 	0.050621
33.07 	0.061463 	2050 	0.060320
33.11 	0.050019 	2579 	0.049338
33.15 	0.048683 	2999 	0.048292
33.19 	0.063136 	3342 	0.062084
33.23 	0.059324 	3523 	0.058493
33.27 	0.061983 	3630 	0.060692
33.31 	0.059290 	3660 	0.058169
33.35 	0.060368 	3694 	0.060051
33.39 	0.069187 	3729 	0.067434
33.43 	0.056102 	3761 	0.055168
33.47 	0.058715 	3798 	0.056864
33.51 	0.053735 	3815 	0.053121
33.55 	0.058548 	3843 	0.057481
33.59 	0.066753 	3880 	0.065092
33.63 	0.062261 	3919 	0.060916
33.67 	0.058928 	3954 	0.057742
33.71 	0.057610 	3975 	0.056873
33.75 	0.064516 	3999 	0.062758
33.79 	0.067310 	4041 	0.066440
33.83 	0.056296 	4050 	0.054995
33.87 	0.059353 	4111 	0.058356
33.91 	0.060014 	4149 	0.058603
33.95 	0.062664 	4181 	0.061403
33.99 	0.058810 	4200 	0.058252
34.03 	0.061027 	4244 	0.059923
34.07 	0.058810 	4268 	0.057140
34.11 	0.058810 	4302 	0.057834
34.15 	0.063496 	4331 	0.062797
34.19 	0.054562 	4362 	0.054025
34.23 	0.057592 	4393 	0.056392
34.27 	0.054726 	4422 	0.053137
34.31 	0.051817 	4458 	0.051554
34.35 	0.053747 	4484 	0.052571
34.39 	0.059307 	4502 	0.058006
34.43 	0.056180 	4539 	0.055793
34.47 	0.055531 	4592 	0.054894
34.51 	0.056665 	4606 	0.055775
34.55 	0.057721 	4643 	0.056712
34.59 	0.053048 	4675 	0.051795
34.63 	0.060510 	4710 	0.059515
34.67 	0.056739 	4741 	0.055854
34.71 	0.057700 	4766 	0.057332
34.75 	0.063436 	4808 	0.062461
34.79 	0.058665 	4824 	0.057188
34.83 	0.054504 	4862 	0.053260
34.87 	0.059162 	4868 	0.058199
34.91 	0.055510 	4882 	0.054430
34.95 	0.057260 	4890 	0.055783
34.99 	0.063508 	4897 	0.062671
35.03 	0.060085 	4943 	0.059117
35.07 	0.058097 	4940 	0.057267
35.11 	0.061249 	4947 	0.060302
35.15 	0.057525 	4937 	0.056813
35.19 	0.059085 	4942 	0.057900
35.23 	0.052983 	4945 	0.051660
35.27 	0.056993 	4948 	0.055789
35.31 	0.061423 	4933 	0.060810
35.35 	0.057669 	4942 	0.056602
35.39 	0.058038 	4945 	0.057071
35.43 	0.053720 	4933 	0.052770
35.47 	0.061854 	4931 	0.060052
35.51 	0.059683 	4926 	0.058494
35.55 	0.060465 	4945 	0.059754
35.59 	0.059050 	4945 	0.057983
35.63 	0.057050 	4943 	0.056339
35.67 	0.058883 	4942 	0.058290
35.71 	0.057525 	4937 	0.056694
35.75 	0.060637 	4931 	0.059310
35.79 	0.062247 	4932 	0.060821
35.83 	0.059644 	4946 	0.057967
35.87 	0.059110 	4923 	0.058158
35.91 	0.058047 	4927 	0.057215
35.95 	0.056945 	4917 	0.055635
35.99 	0.060336 	4939 	0.059624
36.03 	0.055027 	4943 	0.054198
36.07 	0.056489 	4939 	0.055896
36.11 	0.055184 	4929 	0.054352
36.15 	0.055072 	4939 	0.054104
36.19 	0.053036 	4940 	0.052325
36.23 	0.060993 	4935 	0.059806
36.27 	0.056447 	4925 	0.055852
36.31 	0.062500 	4928 	0.061430
36.35 	0.060459 	4929 	0.059627
36.39 	0.055680 	4921 	0.054370
36.43 	0.056006 	4928 	0.055412
36.47 	0.063412 	4936 	0.062106
36.51 	0.060612 	4933 	0.059187
36.55 	0.062107 	4927 	0.060423
36.59 	0.059526 	4939 	0.058933
36.63 	0.057392 	4931 	0.056798
36.67 	0.062272 	4930 	0.060014
36.71 	0.053851 	4921 	0.053137
36.75 	0.055421 	4944 	0.054828
36.79 	0.058118 	4921 	0.056809
36.83 	0.061038 	4915 	0.059369
36.87 	0.060680 	4944 	0.059376
36.91 	0.056062 	4941 	0.055232
36.95 	0.055139 	4933 	0.053932
36.99 	0.055927 	4935 	0.055452
37.03 	0.055443 	4924 	0.054828
37.07 	0.058561 	4935 	0.057612
37.11 	0.060790 	4935 	0.059465
37.15 	0.057853 	4909 	0.056898
37.19 	0.053198 	4925 	0.052365
37.23 	0.053477 	4918 	0.052762
37.27 	0.055987 	4894 	0.055628
37.31 	0.054103 	4935 	0.052916
37.35 	0.054475 	4938 	0.053882
37.39 	0.051308 	4931 	0.050595
37.43 	0.054947 	4932 	0.054591
37.47 	0.053763 	4929 	0.052218
37.51 	0.055139 	4933 	0.054070
37.55 	0.056389 	4930 	0.055895
37.59 	0.057375 	4915 	0.056184
37.63 	0.051840 	4919 	0.051244
37.67 	0.052814 	4904 	0.052456
37.71 	0.053155 	4929 	0.052422
37.75 	0.056883 	4940 	0.055914
37.79 	0.051318 	4930 	0.050487
37.83 	0.053659 	4920 	0.053301
37.87 	0.055882 	4939 	0.055763
37.91 	0.052941 	4930 	0.052347
37.95 	0.059338 	4921 	0.058504
37.99 	0.049267 	4912 	0.048432
38.03 	0.050927 	4909 	0.050688
38.07 	0.049501 	4909 	0.048904
38.11 	0.049240 	4935 	0.048765
38.15 	0.054697 	4918 	0.053486
38.19 	0.055578 	4930 	0.054271
38.23 	0.049210 	4938 	0.048854
38.27 	0.054361 	4930 	0.053648
38.31 	0.066166 	4927 	0.065334
38.35 	0.057427 	4928 	0.056595
38.39 	0.061112 	4909 	0.060158
38.43 	0.059601 	4916 	0.058886
38.47 	0.060322 	4907 	0.059725
38.51 	0.072993 	4932 	0.072043
38.55 	0.057334 	4936 	0.056484
38.59 	0.060114 	4924 	0.059638
38.63 	0.066816 	4924 	0.065388
38.67 	0.069475 	4937 	0.068368
38.71 	0.058692 	4924 	0.057621
38.75 	0.056221 	4927 	0.055389
38.79 	0.059384 	4934 	0.057959
38.83 	0.060378 	4919 	0.058830
38.87 	0.053960 	4911 	0.053483
38.91 	0.063227 	4903 	0.061793
38.95 	0.053070 	4918 	0.052117
38.99 	0.049220 	4937 	0.048034
39.03 	0.050872 	4934 	0.050397
39.07 	0.046507 	4924 	0.046031
39.11 	0.046441 	4931 	0.045728
39.15 	0.041709 	4915 	0.041352
39.19 	0.047997 	4917 	0.047282
39.23 	0.047513 	4925 	0.046799
39.27 	0.043177 	4910 	0.042700
39.31 	0.043407 	4884 	0.042687
39.35 	0.049443 	4935 	0.048256
39.39 	0.043619 	4929 	0.043382
39.43 	0.042976 	4933 	0.042501
39.47 	0.047126 	4923 	0.046174
39.51 	0.045695 	4924 	0.045219
39.55 	0.043911 	4919 	0.042840
39.59 	0.048453 	4912 	0.048214
39.63 	0.052824 	4922 	0.052229
39.67 	0.047629 	4913 	0.047033
39.71 	0.050255 	4895 	0.049059
39.75 	0.040179 	4928 	0.039684
39.79 	0.044458 	4926 	0.044101
39.83 	0.051682 	4934 	0.051089
39.87 	0.040812 	4925 	0.040336
39.91 	0.042259 	4922 	0.041783
39.95 	0.048830 	4915 	0.047996
39.99 	0.044607 	4932 	0.044250
40.03 	0.044846 	4928 	0.044014
40.07 	0.048141 	4923 	0.047903
40.11 	0.043328 	4916 	0.042851
40.15 	0.045797 	4913 	0.045439
40.19 	0.043417 	4929 	0.043179
40.23 	0.045823 	4932 	0.045111
40.27 	0.047397 	4937 	0.047160
40.31 	0.044948 	4939 	0.044593
40.35 	0.046148 	4919 	0.045195
40.39 	0.049483 	4931 	0.048651
40.43 	0.046526 	4922 	0.046169
40.47 	0.048394 	4918 	0.047917
40.51 	0.045510 	4922 	0.044677
40.55 	0.041565 	4908 	0.041087
40.59 	0.043144 	4937 	0.042788
40.63 	0.047059 	4930 	0.045989
40.67 	0.049473 	4932 	0.048641
40.71 	0.046837 	4932 	0.046006
40.75 	0.046238 	4931 	0.045407
40.79 	0.041024 	4924 	0.040310
40.83 	0.044846 	4928 	0.044251
40.87 	0.043831 	4928 	0.043356
40.91 	0.037782 	4923 	0.037187
40.95 	0.043965 	4913 	0.043369
40.99 	0.044070 	4924 	0.043237
41.03 	0.045056 	4905 	0.044459
41.07 	0.036511 	4930 	0.036392
41.11 	0.040527 	4935 	0.039933
41.15 	0.046954 	4941 	0.046243
41.19 	0.041176 	4930 	0.040939
41.23 	0.043936 	4939 	0.042730
41.27 	0.042791 	4931 	0.042315
41.31 	0.040543 	4933 	0.040187
41.35 	0.043135 	4938 	0.042423
41.39 	0.040138 	4933 	0.039900
41.43 	0.043214 	4929 	0.042719
41.47 	0.045067 	4926 	0.044472
41.51 	0.044534 	4940 	0.043704
41.55 	0.038298 	4935 	0.037348
41.59 	0.043381 	4933 	0.042550
41.63 	0.039490 	4938 	0.038897
41.67 	0.038866 	4940 	0.038036
41.71 	0.041751 	4934 	0.041157
41.75 	0.042808 	4929 	0.042332
41.79 	0.039442 	4944 	0.038968
41.83 	0.043222 	4928 	0.042747
41.87 	0.046201 	4935 	0.045231
41.91 	0.039911 	4936 	0.039317
41.95 	0.043196 	4931 	0.042602
41.99 	0.040979 	4905 	0.040023
42.03 	0.037052 	4939 	0.036696
42.07 	0.037675 	4937 	0.037437
42.11 	0.042467 	4945 	0.042112
42.15 	0.046375 	4938 	0.045545
42.19 	0.036064 	4908 	0.035586
42.23 	0.040679 	4892 	0.040319
42.27 	0.038572 	4874 	0.038091
42.31 	0.043048 	4855 	0.042807
42.35 	0.038446 	4838 	0.037941
42.39 	0.041840 	4804 	0.041352
42.43 	0.035267 	4792 	0.034900
42.47 	0.038615 	4765 	0.038369
42.51 	0.038372 	4743 	0.037755
42.55 	0.042906 	4708 	0.042284
42.59 	0.040178 	4729 	0.039806
42.63 	0.043746 	4709 	0.043000
42.67 	0.041204 	4684 	0.040829
42.71 	0.039674 	4663 	0.039172
42.75 	0.036604 	4617 	0.036477
42.79 	0.044740 	4582 	0.044101
42.83 	0.044092 	4536 	0.043833
42.87 	0.043343 	4499 	0.042692
42.91 	0.038375 	4456 	0.037718
42.95 	0.042120 	4416 	0.042120
42.99 	0.034664 	4385 	0.034263
43.03 	0.038541 	4333 	0.038136
43.07 	0.037477 	4296 	0.037068
43.11 	0.042538 	4255 	0.042263
43.15 	0.038279 	4206 	0.037025
43.19 	0.043634 	4194 	0.042796
43.23 	0.037554 	4154 	0.037272
43.27 	0.042144 	4105 	0.041288
43.31 	0.042658 	4079 	0.042083
43.35 	0.036954 	4032 	0.036809
43.39 	0.042979 	4002 	0.042539
43.43 	0.039899 	3960 	0.039751
43.47 	0.041316 	3921 	0.040718
43.51 	0.039464 	3877 	0.038708
43.55 	0.041498 	2964 	0.041300
43.59 	0.048110 	1746 	0.047439
43.63 	0.031968 	1001 	0.031968
43.67 	0.045817 	502 	0.044650
43.71 	0.029289 	239 	0.029289
43.75 	0.125000 	16 	0.125000

File: 25SC_s1_0016.003.dat
#F C:\frames\spec\25SC_s1_0016.003
#C title =s:16 frm:3 25SC_s1
#C wavelength =0.15406

#S 1  fr_average C:\frames\spec\25SC_s1_0016.003 C:\win32app\speccom\mask.axs chi 0 180 0 360 0.02
#C 2 theta =0.000000 to 180 deg
#C   q   =0.000000 to 81.568 nm^-1
#C  chi  =0.000000 to 360 deg
#C collumns:
#C  1 position (2theta or chi in degrees)
#C  2 average intensity (sum of all counts in the region divided with number of pixels)
#C  3 Number of pixels in region)
#C  4 error (sum of sqrt(intensity) for all pixels divided by number)
#N 4
#L TTh  Int  N_pix  Err
32.99 	0.049180 	61 	0.049180
33.03 	0.043853 	1391 	0.043011
33.07 	0.060488 	2050 	0.059059
33.11 	0.061264 	2579 	0.060810
33.15 	0.058353 	2999 	0.057571
33.19 	0.059246 	3342 	0.058370
33.23 	0.057621 	3523 	0.056596
33.27 	0.056198 	3630 	0.055230
33.31 	0.058470 	3660 	0.057670
33.35 	0.063617 	3694 	0.062824
33.39 	0.061142 	3729 	0.059414
33.43 	0.057166 	3761 	0.055764
33.47 	0.056082 	3798 	0.055003
33.51 	0.060550 	3815 	0.059015
33.55 	0.061150 	3843 	0.060083
33.59 	0.061856 	3880 	0.060497
33.63 	0.065068 	3919 	0.064320
33.67 	0.062974 	3954 	0.062085
33.71 	0.059623 	3975 	0.058296
33.75 	0.057014 	3999 	0.055696
33.79 	0.058401 	4041 	0.057387
33.83 	0.068889 	4050 	0.067732
33.87 	0.058137 	4111 	0.057709
33.91 	0.055194 	4149 	0.054324
33.95 	0.063860 	4181 	0.063020
33.99 	0.058571 	4200 	0.057456
34.03 	0.062441 	4244 	0.060785
34.07 	0.062324 	4268 	0.061089
34.11 	0.062529 	4302 	0.061440
34.15 	0.061187 	4331 	0.059834
34.19 	0.060981 	4362 	0.059885
34.23 	0.061006 	4393 	0.059806
34.27 	0.067164 	4422 	0.065707
34.31 	0.051593 	4458 	0.050804
34.35 	0.065343 	4484 	0.064037
34.39 	0.064194 	4502 	0.063153
34.43 	0.062128 	4539 	0.061483
34.47 	0.059669 	4592 	0.058648
34.51 	0.059053 	4606 	0.057782
34.55 	0.059444 	4643 	0.058687
34.59 	0.059679 	4675 	0.058551
34.63 	0.056051 	4710 	0.054807
34.67 	0.061169 	4741 	0.060551
34.71 	0.061897 	4766 	0.061036
34.75 	0.060524 	4808 	0.059915
34.79 	0.057629 	4824 	0.056293
34.83 	0.060263 	4862 	0.059179
34.87 	0.058751 	4868 	0.057788
34.91 	0.058378 	4882 	0.057538
34.95 	0.066053 	4890 	0.064596
34.99 	0.066776 	4897 	0.065221
35.03 	0.056646 	4943 	0.055579
35.07 	0.060324 	4940 	0.059612
35.11 	0.056398 	4947 	0.055569
35.15 	0.060361 	4937 	0.058917
35.19 	0.056050 	4942 	0.055695
35.23 	0.056421 	4945 	0.055947
35.27 	0.061035 	4948 	0.060206
35.31 	0.063653 	4933 	0.062446
35.35 	0.060704 	4942 	0.059993
35.39 	0.059656 	4945 	0.058472
35.43 	0.063856 	4933 	0.062787
35.47 	0.065707 	4931 	0.064638
35.51 	0.059886 	4926 	0.058935
35.55 	0.057230 	4945 	0.056993
35.59 	0.058443 	4945 	0.058087
35.63 	0.057860 	4943 	0.057149
35.67 	0.066775 	4942 	0.065589
35.71 	0.060563 	4937 	0.059851
35.75 	0.065910 	4931 	0.063613
35.79 	0.059813 	4932 	0.058725
35.83 	0.063081 	4946 	0.062015
35.87 	0.055860 	4923 	0.054908
35.91 	0.058250 	4927 	0.056586
35.95 	0.055318 	4917 	0.054127
35.99 	0.054869 	4939 	0.053782
36.03 	0.061097 	4943 	0.060030
36.07 	0.054262 	4939 	0.053550
36.11 	0.055792 	4929 	0.055079
36.15 	0.061956 	4939 	0.060276
36.19 	0.057287 	4940 	0.056220
36.23 	0.058561 	4935 	0.057968
36.27 	0.065178 	4925 	0.063731
36.31 	0.065138 	4928 	0.064306
36.35 	0.062690 	4929 	0.062096
36.39 	0.056493 	4921 	0.055302
36.43 	0.055195 	4928 	0.054600
36.47 	0.059157 	4936 	0.058188
36.51 	0.060815 	4933 	0.060083
36.55 	0.060483 	4927 	0.059175
36.59 	0.055882 	4939 	0.055170
36.63 	0.058812 	4931 	0.057624
36.67 	0.053955 	4930 	0.051916
36.71 	0.062589 	4921 	0.061399
36.75 	0.052387 	4944 	0.051794
36.79 	0.049787 	4921 	0.049172
36.83 	0.056562 	4915 	0.055608
36.87 	0.058050 	4944 	0.057102
36.91 	0.054442 	4941 	0.053850
36.95 	0.057571 	4933 	0.056978
36.99 	0.054914 	4935 	0.054083
37.03 	0.057880 	4924 	0.056214
37.07 	0.057953 	4935 	0.056153
37.11 	0.062006 	4935 	0.060463
37.15 	0.055001 	4909 	0.053808
37.19 	0.055431 	4925 	0.054480
37.23 	0.053680 	4918 	0.052489
37.27 	0.056191 	4894 	0.055593
37.31 	0.057345 	4935 	0.056633
37.35 	0.059133 	4938 	0.058303
37.39 	0.059420 	4931 	0.057757
37.43 	0.048256 	4932 	0.047425
37.47 	0.055184 	4929 	0.054213
37.51 	0.050679 	4933 	0.050085
37.55 	0.051927 	4930 	0.050858
37.59 	0.051475 	4915 	0.050998
37.63 	0.050417 	4919 	0.049464
37.67 	0.051794 	4904 	0.050600
37.71 	0.052343 	4929 	0.051987
37.75 	0.053644 	4940 	0.052932
37.79 	0.052535 	4930 	0.052179
37.83 	0.051220 	4920 	0.050148
37.87 	0.053250 	4939 	0.052419
37.91 	0.051116 	4930 	0.050284
37.95 	0.055273 	4921 	0.054916
37.99 	0.062296 	4912 	0.060965
38.03 	0.049705 	4909 	0.048153
38.07 	0.060909 	4909 	0.060312
38.11 	0.056940 	4935 	0.055872
38.15 	0.053680 	4918 	0.052251
38.19 	0.049493 	4930 	0.048780
38.23 	0.057716 	4938 	0.056629
38.27 	0.056187 	4930 	0.055236
38.31 	0.059468 	4927 	0.058517
38.35 	0.059862 	4928 	0.058317
38.39 	0.059483 	4909 	0.058767
38.43 	0.067535 	4916 	0.066939
38.47 	0.057061 	4907 	0.055987
38.51 	0.060827 	4932 	0.059758
38.55 	0.058752 	4936 	0.058515
38.59 	0.050366 	4924 	0.049295
38.63 	0.064988 	4924 	0.063560
38.67 	0.059348 	4937 	0.058043
38.71 	0.053818 	4924 	0.053461
38.75 	0.053176 	4927 	0.052701
38.79 	0.054317 	4934 	0.053130
38.83 	0.054889 	4919 	0.053698
38.87 	0.052739 	4911 	0.052262
38.91 	0.050581 	4903 	0.050223
38.95 	0.053070 	4918 	0.052356
38.99 	0.055297 	4937 	0.054110
39.03 	0.054925 	4934 	0.054094
39.07 	0.043461 	4924 	0.042390
39.11 	0.044413 	4931 	0.043938
39.15 	0.051679 	4915 	0.050825
39.19 	0.052471 	4917 	0.051637
39.23 	0.047716 	4925 	0.047240
39.27 	0.048473 	4910 	0.047995
39.31 	0.042793 	4884 	0.042193
39.35 	0.050051 	4935 	0.049813
39.39 	0.044228 	4929 	0.044109
39.43 	0.045814 	4933 	0.045220
39.47 	0.051595 	4923 	0.051476
39.51 	0.047929 	4924 	0.047096
39.55 	0.046148 	4919 	0.045195
39.59 	0.052117 	4912 	0.051282
39.63 	0.050589 	4922 	0.049756
39.67 	0.047425 	4913 	0.046591
39.71 	0.049847 	4895 	0.049607
39.75 	0.051136 	4928 	0.050780
39.79 	0.048924 	4926 	0.048329
39.83 	0.047629 	4934 	0.047253
39.87 	0.046701 	4925 	0.046225
39.91 	0.049370 	4922 	0.048418
39.95 	0.047813 	4915 	0.047217
39.99 	0.050892 	4932 	0.050061
40.03 	0.050325 	4928 	0.050087
40.07 	0.055454 	4923 	0.054145
40.11 	0.044752 	4916 	0.044275
40.15 	0.049054 	4913 	0.047861
40.19 	0.051329 	4929 	0.050378
40.23 	0.045418 	4932 	0.044705
40.27 	0.050435 	4937 	0.049961
40.31 	0.050820 	4939 	0.049990
40.35 	0.050010 	4919 	0.049057
40.39 	0.044818 	4931 	0.044581
40.43 	0.047135 	4922 	0.046659
40.47 	0.046564 	4918 	0.045849
40.51 	0.041853 	4922 	0.041496
40.55 	0.046659 	4908 	0.045942
40.59 	0.042131 	4937 	0.041775
40.63 	0.048073 	4930 	0.047360
40.67 	0.047445 	4932 	0.046970
40.71 	0.046837 	4932 	0.045768
40.75 	0.044210 	4931 	0.044210
40.79 	0.049959 	4924 	0.049583
40.83 	0.044643 	4928 	0.043930
40.87 	0.048904 	4928 	0.048191
40.91 	0.048548 	4923 	0.047953
40.95 	0.043151 	4913 	0.042316
40.99 	0.048944 	4924 	0.048587
41.03 	0.047910 	4905 	0.047552
41.07 	0.051927 	4930 	0.050976
41.11 	0.044174 	4935 	0.043818
41.15 	0.048371 	4941 	0.047778
41.19 	0.043408 	4930 	0.043170
41.23 	0.042721 	4939 	0.041772
41.27 	0.044616 	4931 	0.044141
41.31 	0.046625 	4933 	0.045794
41.35 	0.049615 	4938 	0.049259
41.39 	0.042165 	4933 	0.041690
41.43 	0.043822 	4929 	0.043466
41.47 	0.044661 	4926 	0.044423
41.51 	0.045142 	4940 	0.043936
41.55 	0.043566 	4935 	0.042973
41.59 	0.043787 	4933 	0.043549
41.63 	0.045970 	4938 	0.045377
41.67 	0.043117 	4940 	0.042643
41.71 	0.047629 	4934 	0.047154
41.75 	0.044025 	4929 	0.043074
41.79 	0.043083 	4944 	0.042490
41.83 	0.040787 	4928 	0.040550
41.87 	0.043566 	4935 	0.042617
41.91 	0.047204 	4936 	0.046967
41.95 	0.042993 	4931 	0.042281
41.99 	0.040571 	4905 	0.040093
42.03 	0.041101 	4939 	0.040508
42.07 	0.042131 	4937 	0.041419
42.11 	0.042063 	4945 	0.041589
42.15 	0.044552 	4938 	0.043959
42.19 	0.043399 	4908 	0.042682
42.23 	0.038839 	4892 	0.038480
42.27 	0.044522 	4874 	0.044161
42.31 	0.044078 	4855 	0.043354
42.35 	0.045473 	4838 	0.044868
42.39 	0.044338 	4804 	0.044216
42.43 	0.045701 	4792 	0.045457
42.47 	0.046800 	4765 	0.046308
42.51 	0.039005 	4743 	0.038387
42.55 	0.046941 	4708 	0.046319
42.59 	0.046521 	4729 	0.045530
42.63 	0.043958 	4709 	0.043585
42.67 	0.033305 	4684 	0.032930
42.71 	0.047609 	4663 	0.046855
42.75 	0.039636 	4617 	0.039129
42.79 	0.042340 	4582 	0.041700
42.83 	0.046076 	4536 	0.045430
42.87 	0.039342 	4499 	0.038821
42.91 	0.043986 	4456 	0.043065
42.95 	0.043705 	4416 	0.042998
42.99 	0.040365 	4385 	0.039697
43.03 	0.043619 	4333 	0.042808
43.07 	0.043994 	4296 	0.043449
43.11 	0.038778 	4255 	0.038227
43.15 	0.042796 	4206 	0.042100
43.19 	0.039580 	4194 	0.039161
43.23 	0.038036 	4154 	0.037754
43.27 	0.037272 	4105 	0.036986
43.31 	0.039961 	4079 	0.039386
43.35 	0.041667 	4032 	0.041667
43.39 	0.034983 	4002 	0.034690
43.43 	0.039394 	3960 	0.039246
43.47 	0.040296 	3921 	0.039997
43.51 	0.044364 	3877 	0.043911
43.55 	0.037112 	2964 	0.036321
43.59 	0.034364 	1746 	0.034364
43.63 	0.044955 	1001 	0.044955
43.67 	0.031873 	502 	0.031873
43.71 	0.050209 	239 	0.050209
43.75 	0.000000 	16 	0.000000