Folder: Bessy-II-KMC-II-insitu-sin2psi/Example_Data (part 46)

File: 25SC_s1_0018.004.dat
#F C:\frames\spec\25SC_s1_0018.004
#C title =s:18 frm:4 25SC_s1
#C wavelength =0.15406

#S 1  fr_average C:\frames\spec\25SC_s1_0018.004 C:\win32app\speccom\mask.axs chi 0 180 0 360 0.02
#C 2 theta =0.000000 to 180 deg
#C   q   =0.000000 to 81.568 nm^-1
#C  chi  =0.000000 to 360 deg
#C collumns:
#C  1 position (2theta or chi in degrees)
#C  2 average intensity (sum of all counts in the region divided with number of pixels)
#C  3 Number of pixels in region)
#C  4 error (sum of sqrt(intensity) for all pixels divided by number)
#N 4
#L TTh  Int  N_pix  Err
32.99 	0.032787 	61 	0.032787
33.03 	0.069015 	1391 	0.068173
33.07 	0.058049 	2050 	0.056906
33.11 	0.053897 	2579 	0.053215
33.15 	0.049350 	2999 	0.048959
33.19 	0.055655 	3342 	0.053902
33.23 	0.053364 	3523 	0.051867
33.27 	0.057300 	3630 	0.056493
33.31 	0.053552 	3660 	0.052912
33.35 	0.052247 	3694 	0.051613
33.39 	0.061142 	3729 	0.060043
33.43 	0.056634 	3761 	0.055232
33.47 	0.061875 	3798 	0.060641
33.51 	0.069725 	3815 	0.068625
33.55 	0.064273 	3843 	0.062901
33.59 	0.057216 	3880 	0.056311
33.63 	0.064302 	3919 	0.062658
33.67 	0.065250 	3954 	0.063769
33.71 	0.064151 	3975 	0.063267
33.75 	0.064516 	3999 	0.063637
33.79 	0.062361 	4041 	0.061346
33.83 	0.057037 	4050 	0.056458
33.87 	0.060083 	4111 	0.059228
33.91 	0.059532 	4149 	0.058685
33.95 	0.060273 	4181 	0.060133
33.99 	0.057143 	4200 	0.055609
34.03 	0.059378 	4244 	0.058688
34.07 	0.062559 	4268 	0.061735
34.11 	0.060205 	4302 	0.058684
34.15 	0.064650 	4331 	0.063433
34.19 	0.063044 	4362 	0.061433
34.23 	0.058957 	4393 	0.057491
34.27 	0.058571 	4422 	0.057776
34.31 	0.062360 	4458 	0.060914
34.35 	0.063559 	4484 	0.061861
34.39 	0.058863 	4502 	0.057562
34.43 	0.058383 	4539 	0.057350
34.47 	0.059451 	4592 	0.058431
34.51 	0.062093 	4606 	0.060800
34.55 	0.065906 	4643 	0.064392
34.59 	0.060321 	4675 	0.059694
34.63 	0.052866 	4710 	0.051996
34.67 	0.069395 	4741 	0.068653
34.71 	0.062946 	4766 	0.062208
34.75 	0.060732 	4808 	0.059757
34.79 	0.053690 	4824 	0.053083
34.83 	0.057178 	4862 	0.056094
34.87 	0.058956 	4868 	0.057873
34.91 	0.059607 	4882 	0.058627
34.95 	0.060532 	4890 	0.059454
34.99 	0.064325 	4897 	0.063368
35.03 	0.061097 	4943 	0.059556
35.07 	0.058300 	4940 	0.057470
35.11 	0.059632 	4947 	0.057974
35.15 	0.055297 	4937 	0.054703
35.19 	0.060704 	4942 	0.059756
35.23 	0.066734 	4945 	0.065431
35.27 	0.058610 	4948 	0.057544
35.31 	0.058788 	4933 	0.058075
35.35 	0.057871 	4942 	0.056311
35.39 	0.059656 	4945 	0.057978
35.43 	0.066694 	4933 	0.065150
35.47 	0.061042 	4931 	0.060092
35.51 	0.064352 	4926 	0.062925
35.55 	0.061476 	4945 	0.060035
35.59 	0.055207 	4945 	0.054260
35.63 	0.057455 	4943 	0.056744
35.67 	0.060097 	4942 	0.059030
35.71 	0.058132 	4937 	0.057302
35.75 	0.059420 	4931 	0.058232
35.79 	0.062449 	4932 	0.061855
35.83 	0.065710 	4946 	0.064407
35.87 	0.056876 	4923 	0.055924
35.91 	0.063933 	4927 	0.062468
35.95 	0.057962 	4917 	0.057366
35.99 	0.061146 	4939 	0.059960
36.03 	0.061703 	4943 	0.060874
36.07 	0.065600 	4939 	0.064632
36.11 	0.063907 	4929 	0.062838
36.15 	0.055679 	4939 	0.054968
36.19 	0.059514 	4940 	0.058803
36.23 	0.062614 	4935 	0.061190
36.27 	0.059086 	4925 	0.058254
36.31 	0.056818 	4928 	0.055372
36.35 	0.054372 	4929 	0.053540
36.39 	0.060760 	4921 	0.060046
36.43 	0.061080 	4928 	0.060129
36.47 	0.057942 	4936 	0.056874
36.51 	0.058990 	4933 	0.058278
36.55 	0.057236 	4927 	0.055809
36.59 	0.062361 	4939 	0.061630
36.63 	0.058812 	4931 	0.057248
36.67 	0.059229 	4930 	0.058279
36.71 	0.058728 	4921 	0.057776
36.75 	0.054409 	4944 	0.053698
36.79 	0.061573 	4921 	0.060382
36.83 	0.059817 	4915 	0.059201
36.87 	0.056634 	4944 	0.055805
36.91 	0.053430 	4941 	0.052363
36.95 	0.059396 	4933 	0.058683
36.99 	0.054914 	4935 	0.054439
37.03 	0.054224 	4924 	0.053272
37.07 	0.053901 	4935 	0.052951
37.11 	0.055724 	4935 	0.054656
37.15 	0.061316 	4909 	0.059765
37.19 	0.050761 	4925 	0.049691
37.23 	0.055510 	4918 	0.054677
37.27 	0.059052 	4894 	0.058214
37.31 	0.051266 	4935 	0.050436
37.35 	0.051033 	4938 	0.049847
37.39 	0.049888 	4931 	0.048938
37.43 	0.053325 	4932 	0.052613
37.47 	0.062690 	4929 	0.061858
37.51 	0.057977 	4933 	0.056908
37.55 	0.056389 	4930 	0.055558
37.59 	0.055137 	4915 	0.053568
37.63 	0.055499 	4919 	0.054170
37.67 	0.063825 	4904 	0.062392
37.71 	0.054372 	4929 	0.053897
37.75 	0.051417 	4940 	0.050468
37.79 	0.048073 	4930 	0.047241
37.83 	0.054472 	4920 	0.053995
37.87 	0.051022 	4939 	0.050311
37.91 	0.053550 	4930 	0.053312
37.95 	0.058525 	4921 	0.057691
37.99 	0.058021 	4912 	0.057306
38.03 	0.057649 	4909 	0.056933
38.07 	0.055001 	4909 	0.054027
38.11 	0.058359 	4935 	0.057646
38.15 	0.058967 	4918 	0.057637
38.19 	0.057606 	4930 	0.057250
38.23 	0.062576 	4938 	0.061271
38.27 	0.061663 	4930 	0.060950
38.31 	0.064948 	4927 	0.063165
38.35 	0.071631 	4928 	0.069848
38.39 	0.067223 	4909 	0.066030
38.43 	0.072417 	4916 	0.071225
38.47 	0.064194 	4907 	0.063000
38.51 	0.066504 	4932 	0.065079
38.55 	0.066248 	4936 	0.065061
38.59 	0.059708 	4924 	0.058994
38.63 	0.058083 	4924 	0.057250
38.67 	0.057120 	4937 	0.056408
38.71 	0.063769 	4924 	0.062342
38.75 	0.054394 	4927 	0.053800
38.79 	0.060600 	4934 	0.059413
38.83 	0.053669 	4919 	0.052459
38.87 	0.057422 	4911 	0.056587
38.91 	0.055884 	4903 	0.054570
38.95 	0.053070 	4918 	0.051879
38.99 	0.056309 	4937 	0.055716
39.03 	0.060397 	4934 	0.058716
39.07 	0.050772 	4924 	0.049939
39.11 	0.051511 	4931 	0.050560
39.15 	0.056765 	4915 	0.055911
39.19 	0.055928 	4917 	0.054975
39.23 	0.060508 	4925 	0.058842
39.27 	0.053768 	4910 	0.053052
39.31 	0.054464 	4884 	0.053984
39.35 	0.057143 	4935 	0.057024
39.39 	0.055995 	4929 	0.054926
39.43 	0.060409 	4933 	0.058846
39.47 	0.053423 	4923 	0.052590
39.51 	0.052803 	4924 	0.052327
39.55 	0.055906 	4919 	0.055310
39.59 	0.057003 	4912 	0.056168
39.63 	0.052824 	4922 	0.052467
39.67 	0.059638 	4913 	0.058426
39.71 	0.058223 	4895 	0.057385
39.75 	0.056006 	4928 	0.055174
39.79 	0.052375 	4926 	0.051424
39.83 	0.060600 	4934 	0.059531
39.87 	0.054416 	4925 	0.053564
39.91 	0.062170 	4922 	0.060742
39.95 	0.052085 	4915 	0.051370
39.99 	0.058191 	4932 	0.057598
40.03 	0.054383 	4928 	0.053155
40.07 	0.058095 	4923 	0.056905
40.11 	0.054719 	4916 	0.053885
40.15 	0.052717 	4913 	0.052002
40.19 	0.061270 	4929 	0.060319
40.23 	0.059408 	4932 	0.058458
40.27 	0.050233 	4937 	0.049758
40.31 	0.054869 	4939 	0.053802
40.35 	0.051840 	4919 	0.050768
40.39 	0.055364 	4931 	0.054651
40.43 	0.047338 	4922 	0.046386
40.47 	0.055510 	4918 	0.054319
40.51 	0.048964 	4922 	0.048250
40.55 	0.048696 	4908 	0.048099
40.59 	0.054284 	4937 	0.053453
40.63 	0.050710 	4930 	0.050116
40.67 	0.049270 	4932 	0.048439
40.71 	0.054136 	4932 	0.053186
40.75 	0.060434 	4931 	0.059127
40.79 	0.053006 	4924 	0.052034
40.83 	0.049107 	4928 	0.048018
40.87 	0.055195 	4928 	0.054482
40.91 	0.053423 	4923 	0.052709
40.95 	0.050478 	4913 	0.049524
40.99 	0.055443 	4924 	0.053777
41.03 	0.043833 	4905 	0.042997
41.07 	0.055984 	4930 	0.055865
41.11 	0.057143 	4935 	0.056312
41.15 	0.054847 	4941 	0.054254
41.19 	0.053753 	4930 	0.052921
41.23 	0.047985 	4939 	0.046918
41.27 	0.052322 	4931 	0.051134
41.31 	0.049463 	4933 	0.049107
41.35 	0.047995 	4938 	0.047165
41.39 	0.049463 	4933 	0.048750
41.43 	0.049503 	4929 	0.049265
41.47 	0.051969 	4926 	0.051117
41.51 	0.049190 	4940 	0.048004
41.55 	0.049037 	4935 	0.048325
41.59 	0.052504 	4933 	0.051554
41.63 	0.044957 	4938 	0.044483
41.67 	0.046559 	4940 	0.045847
41.71 	0.050466 	4934 	0.049041
41.75 	0.047474 	4929 	0.046642
41.79 	0.046926 	4944 	0.046215
41.83 	0.040990 	4928 	0.040515
41.87 	0.042553 	4935 	0.042197
41.91 	0.047407 	4936 	0.046695
41.95 	0.055161 	4931 	0.053736
41.99 	0.049745 	4905 	0.048651
42.03 	0.045353 	4939 	0.044879
42.07 	0.047600 	4937 	0.047362
42.11 	0.051365 	4945 	0.050773
42.15 	0.045970 	4938 	0.045377
42.19 	0.045844 	4908 	0.045127
42.23 	0.051513 	4892 	0.050794
42.27 	0.048010 	4874 	0.047289
42.31 	0.043048 	4855 	0.042807
42.35 	0.051261 	4838 	0.050777
42.39 	0.046836 	4804 	0.046470
42.43 	0.044449 	4792 	0.043838
42.47 	0.051836 	4765 	0.051099
42.51 	0.044487 	4743 	0.043869
42.55 	0.053101 	4708 	0.051857
42.59 	0.050116 	4729 	0.049745
42.63 	0.043321 	4709 	0.042575
42.67 	0.048676 	4684 	0.048301
42.71 	0.047823 	4663 	0.046923
42.75 	0.050249 	4617 	0.049615
42.79 	0.046268 	4582 	0.045757
42.83 	0.041667 	4536 	0.041150
42.87 	0.049122 	4499 	0.048341
42.91 	0.047352 	4456 	0.046826
42.95 	0.046875 	4416 	0.046344
42.99 	0.043101 	4385 	0.042834
43.03 	0.048696 	4333 	0.047885
43.07 	0.045391 	4296 	0.044573
43.11 	0.046298 	4255 	0.045748
43.15 	0.049453 	4206 	0.048618
43.19 	0.053648 	4194 	0.053229
43.23 	0.046221 	4154 	0.045656
43.27 	0.047259 	4105 	0.045952
43.31 	0.049522 	4079 	0.048660
43.35 	0.051587 	4032 	0.051006
43.39 	0.050225 	4002 	0.049347
43.43 	0.052273 	3960 	0.051237
43.47 	0.043611 	3921 	0.043313
43.51 	0.048749 	3877 	0.047842
43.55 	0.035762 	2964 	0.035565
43.59 	0.036655 	1746 	0.036655
43.63 	0.061938 	1001 	0.060768
43.67 	0.047809 	502 	0.047809
43.71 	0.037657 	239 	0.037657
43.75 	0.062500 	16 	0.062500

File: 25SC_s1_0019.000.dat
#F C:\frames\spec\25SC_s1_0019.000
#C title =s:19 frm:0 25SC_s1
#C wavelength =0.15406

#S 1  fr_average C:\frames\spec\25SC_s1_0019.000 C:\win32app\speccom\mask.axs chi 0 180 0 360 0.02
#C 2 theta =0.000000 to 180 deg
#C   q   =0.000000 to 81.568 nm^-1
#C  chi  =0.000000 to 360 deg
#C collumns:
#C  1 position (2theta or chi in degrees)
#C  2 average intensity (sum of all counts in the region divided with number of pixels)
#C  3 Number of pixels in region)
#C  4 error (sum of sqrt(intensity) for all pixels divided by number)
#N 4
#L TTh  Int  N_pix  Err
32.99 	0.049180 	61 	0.039577
33.03 	0.071172 	1391 	0.068645
33.07 	0.054146 	2050 	0.053289
33.11 	0.059713 	2579 	0.058123
33.15 	0.056019 	2999 	0.054847
33.19 	0.061939 	3342 	0.060186
33.23 	0.054215 	3523 	0.053384
33.27 	0.056198 	3630 	0.055391
33.31 	0.062295 	3660 	0.060695
33.35 	0.057661 	3694 	0.057027
33.39 	0.055243 	3729 	0.054300
33.43 	0.059559 	3761 	0.057845
33.47 	0.057925 	3798 	0.057154
33.51 	0.063172 	3815 	0.061790
33.55 	0.054385 	3843 	0.052860
33.59 	0.059021 	3880 	0.057662
33.63 	0.063792 	3919 	0.062745
33.67 	0.066768 	3954 	0.065731
33.71 	0.067421 	3975 	0.066242
33.75 	0.064516 	3999 	0.062405
33.79 	0.060629 	4041 	0.059324
33.83 	0.055309 	4050 	0.054562
33.87 	0.058866 	4111 	0.057869
33.91 	0.057363 	4149 	0.056657
33.95 	0.063382 	4181 	0.061701
33.99 	0.063095 	4200 	0.062258
34.03 	0.058671 	4244 	0.057567
34.07 	0.066776 	4268 	0.066090
34.11 	0.054393 	4302 	0.053712
34.15 	0.052413 	4331 	0.051331
34.19 	0.055938 	4362 	0.055400
34.23 	0.062372 	4393 	0.061172
34.27 	0.057440 	4422 	0.056513
34.31 	0.052490 	4458 	0.051658
34.35 	0.056869 	4484 	0.055824
34.39 	0.058196 	4502 	0.057676
34.43 	0.057502 	4539 	0.056469
34.47 	0.058580 	4592 	0.057687
34.51 	0.052106 	4606 	0.051195
34.55 	0.065906 	4643 	0.064896
34.59 	0.060749 	4675 	0.058869
34.63 	0.055202 	4710 	0.054580
34.67 	0.057794 	4741 	0.057052
34.71 	0.063156 	4766 	0.062050
34.75 	0.059692 	4808 	0.058717
34.79 	0.061774 	4824 	0.059953
34.83 	0.051625 	4862 	0.050661
34.87 	0.058956 	4868 	0.057512
34.91 	0.057149 	4882 	0.056549
34.95 	0.056237 	4890 	0.055638
34.99 	0.055340 	4897 	0.054263
35.03 	0.062513 	4943 	0.061545
35.07 	0.054251 	4940 	0.053184
35.11 	0.058824 	4947 	0.057284
35.15 	0.057930 	4937 	0.056387
35.19 	0.060704 	4942 	0.059874
35.23 	0.052578 	4945 	0.051868
35.27 	0.059014 	4948 	0.058422
35.31 	0.054531 	4933 	0.053917
35.35 	0.065965 	4942 	0.064898
35.39 	0.056623 	4945 	0.055912
35.43 	0.060815 	4933 	0.059390
35.47 	0.051308 	4931 	0.050358
35.51 	0.059886 	4926 	0.058935
35.55 	0.054196 	4945 	0.053248
35.59 	0.056825 	4945 	0.056114
35.63 	0.051790 	4943 	0.050842
35.67 	0.060502 	4942 	0.058823
35.71 	0.058943 	4937 	0.057519
35.75 	0.056784 	4931 	0.056071
35.79 	0.052311 	4932 	0.051836
35.83 	0.063283 	4946 	0.061862
35.87 	0.055251 	4923 	0.054299
35.91 	0.064745 	4927 	0.063913
35.95 	0.061013 	4917 	0.059941
35.99 	0.056894 	4939 	0.056182
36.03 	0.061097 	4943 	0.060385
36.07 	0.058514 	4939 	0.057664
36.11 	0.054981 	4929 	0.054387
36.15 	0.056894 	4939 	0.055827
36.19 	0.054049 	4940 	0.052488
36.23 	0.061601 	4935 	0.060414
36.27 	0.061523 	4925 	0.060690
36.31 	0.063920 	4928 	0.063326
36.35 	0.060256 	4929 	0.059780
36.39 	0.064011 	4921 	0.062702
36.43 	0.058644 	4928 	0.057099
36.47 	0.057131 	4936 	0.056538
36.51 	0.055139 	4933 	0.054288
36.55 	0.061092 	4927 	0.059665
36.59 	0.060336 	4939 	0.059743
36.63 	0.058406 	4931 	0.057337
36.67 	0.055375 	4930 	0.054781
36.71 	0.058728 	4921 	0.057657
36.75 	0.062095 	4944 	0.060536
36.79 	0.058931 	4921 	0.058812
36.83 	0.056358 	4915 	0.055285
36.87 	0.053803 	4944 	0.052736
36.91 	0.053228 	4941 	0.052260
36.95 	0.063045 	4933 	0.061857
36.99 	0.049645 	4935 	0.049171
37.03 	0.053818 	4924 	0.052985
37.07 	0.056332 	4935 	0.055363
37.11 	0.058764 	4935 	0.057933
37.15 	0.061927 	4909 	0.060614
37.19 	0.063147 	4925 	0.061790
37.23 	0.054697 	4918 	0.053863
37.27 	0.055374 	4894 	0.054416
37.31 	0.064438 	4935 	0.062974
37.35 	0.064196 	4938 	0.062772
37.39 	0.052930 	4931 	0.052218
37.43 	0.056569 	4932 	0.056213
37.47 	0.056401 	4929 	0.055450
37.51 	0.057571 	4933 	0.056146
37.55 	0.059838 	4930 	0.059362
37.59 	0.060020 	4915 	0.058948
37.63 	0.064444 	4919 	0.063134
37.67 	0.061582 	4904 	0.060149
37.71 	0.054981 	4929 	0.054505
37.75 	0.059919 	4940 	0.058496
37.79 	0.058621 	4930 	0.057314
37.83 	0.050407 	4920 	0.049216
37.87 	0.056287 	4939 	0.055931
37.91 	0.058621 	4930 	0.057670
37.95 	0.056899 	4921 	0.055352
37.99 	0.055171 	4912 	0.054336
38.03 	0.058668 	4909 	0.057594
38.07 	0.057038 	4909 	0.056203
38.11 	0.058561 	4935 	0.056781
38.15 	0.048597 	4918 	0.048478
38.19 	0.057606 	4930 	0.056894
38.23 	0.059336 	4938 	0.058387
38.27 	0.061258 	4930 	0.060664
38.31 	0.062107 	4927 	0.061393
38.35 	0.064326 	4928 	0.063494
38.39 	0.068853 	4909 	0.067640
38.43 	0.066314 	4916 	0.064716
38.47 	0.068474 	4907 	0.066783
38.51 	0.071979 	4932 	0.069128
38.55 	0.075365 	4936 	0.073684
38.59 	0.078595 	4924 	0.077385
38.63 	0.076564 	4924 	0.074760
38.67 	0.084262 	4937 	0.082344
38.71 	0.073517 	4924 	0.071694
38.75 	0.080373 	4927 	0.079066
38.79 	0.067896 	4934 	0.067065
38.83 	0.077251 	4919 	0.075346
38.87 	0.067196 	4911 	0.066242
38.91 	0.062819 	4903 	0.061624
38.95 	0.060797 	4918 	0.059844
38.99 	0.058538 	4937 	0.057351
39.03 	0.056749 	4934 	0.056037
39.07 	0.060317 	4924 	0.059365
39.11 	0.049686 	4931 	0.048973
39.15 	0.054934 	4915 	0.054100
39.19 	0.048810 	4917 	0.047381
39.23 	0.046904 	4925 	0.046071
39.27 	0.047047 	4910 	0.045834
39.31 	0.047297 	4884 	0.047297
39.35 	0.044580 	4935 	0.043986
39.39 	0.047271 	4929 	0.046320
39.43 	0.051085 	4933 	0.050372
39.47 	0.049970 	4923 	0.049256
39.51 	0.045898 	4924 	0.045660
39.55 	0.052450 	4919 	0.051358
39.59 	0.045399 	4912 	0.044922
39.63 	0.043275 	4922 	0.043037
39.67 	0.045593 	4913 	0.044262
39.71 	0.047191 	4895 	0.046832
39.75 	0.048498 	4928 	0.047904
39.79 	0.051766 	4926 	0.051053
39.83 	0.042967 	4934 	0.042492
39.87 	0.044264 	4925 	0.044145
39.91 	0.045307 	4922 	0.045069
39.95 	0.046999 	4915 	0.046641
39.99 	0.043593 	4932 	0.043118
40.03 	0.047078 	4928 	0.046721
40.07 	0.045501 	4923 	0.044767
40.11 	0.043938 	4916 	0.042985
40.15 	0.047425 	4913 	0.046710
40.19 	0.045040 	4929 	0.044445
40.23 	0.046431 	4932 	0.046313
40.27 	0.044764 	4937 	0.043933
40.31 	0.044543 	4939 	0.043713
40.35 	0.044725 	4919 	0.044248
40.39 	0.043196 	4931 	0.042602
40.43 	0.044494 	4922 	0.044018
40.47 	0.044734 	4918 	0.044257
40.51 	0.040634 	4922 	0.040396
40.55 	0.045232 	4908 	0.044397
40.59 	0.036662 	4937 	0.036543
40.63 	0.041379 	4930 	0.040666
40.67 	0.045823 	4932 	0.044754
40.71 	0.045418 	4932 	0.045180
40.75 	0.036909 	4931 	0.036553
40.79 	0.043054 	4924 	0.042935
40.83 	0.045657 	4928 	0.044588
40.87 	0.041599 	4928 	0.040767
40.91 	0.039610 	4923 	0.039015
40.95 	0.041726 	4913 	0.041110
40.99 	0.042648 	4924 	0.042291
41.03 	0.046687 	4905 	0.045851
41.07 	0.041785 	4930 	0.041191
41.11 	0.037690 	4935 	0.037096
41.15 	0.041490 	4941 	0.041252
41.19 	0.042191 	4930 	0.041953
41.23 	0.043936 	4939 	0.043580
41.27 	0.048672 	4931 	0.047821
41.31 	0.043179 	4933 	0.042822
41.35 	0.044147 	4938 	0.043673
41.39 	0.043787 	4933 	0.043549
41.43 	0.043417 	4929 	0.043179
41.47 	0.043240 	4926 	0.042745
41.51 	0.041296 	4940 	0.040940
41.55 	0.046606 	4935 	0.045281
41.59 	0.039732 	4933 	0.039257
41.63 	0.039895 	4938 	0.039302
41.67 	0.046559 	4940 	0.046203
41.71 	0.042156 	4934 	0.042038
41.75 	0.047677 	4929 	0.046845
41.79 	0.040858 	4944 	0.040265
41.83 	0.043628 	4928 	0.042677
41.87 	0.038501 	4935 	0.038382
41.91 	0.040721 	4936 	0.039772
41.95 	0.035895 	4931 	0.035301
41.99 	0.041794 	4905 	0.041436
42.03 	0.036445 	4939 	0.036207
42.07 	0.038890 	4937 	0.038653
42.11 	0.041658 	4945 	0.040829
42.15 	0.035034 	4938 	0.034797
42.19 	0.041565 	4908 	0.041087
42.23 	0.035977 	4892 	0.035738
42.27 	0.042060 	4874 	0.041699
42.31 	0.037899 	4855 	0.037537
42.35 	0.031625 	4838 	0.031261
42.39 	0.042881 	4804 	0.042149
42.43 	0.042571 	4792 	0.041837
42.47 	0.036306 	4765 	0.036306
42.51 	0.039005 	4743 	0.038511
42.55 	0.039932 	4708 	0.039310
42.59 	0.035948 	4729 	0.035701
42.63 	0.037163 	4709 	0.036914
42.67 	0.040350 	4684 	0.040225
42.71 	0.039460 	4663 	0.039083
42.75 	0.041802 	4617 	0.041548
42.79 	0.037320 	4582 	0.036809
42.83 	0.037919 	4536 	0.037402
42.87 	0.042676 	4499 	0.042286
42.91 	0.034785 	4456 	0.034653
42.95 	0.039855 	4416 	0.039192
42.99 	0.041961 	4385 	0.041694
43.03 	0.042465 	4333 	0.042194
43.07 	0.039804 	4296 	0.039395
43.11 	0.034078 	4255 	0.034078
43.15 	0.043509 	4206 	0.042674
43.19 	0.042442 	4194 	0.042023
43.23 	0.039961 	4154 	0.039374
43.27 	0.040682 	4105 	0.040397
43.31 	0.032116 	4079 	0.031541
43.35 	0.040179 	4032 	0.039307
43.39 	0.038231 	4002 	0.037792
43.43 	0.036869 	3960 	0.036425
43.47 	0.040296 	3921 	0.039848
43.51 	0.038174 	3877 	0.037569
43.55 	0.036775 	2964 	0.036577
43.59 	0.048110 	1746 	0.047439
43.63 	0.036963 	1001 	0.035793
43.67 	0.029880 	502 	0.029880
43.71 	0.029289 	239 	0.029289
43.75 	0.000000 	16 	0.000000