Folder: Bessy-II-KMC-II-insitu-sin2psi/Example_Data (part 72)

File: 25SC_s1_0029.001.dat
#F C:\frames\spec\25SC_s1_0029.001
#C title =s:29 frm:1 25SC_s1
#C wavelength =0.15406

#S 1  fr_average C:\frames\spec\25SC_s1_0029.001 C:\win32app\speccom\mask.axs chi 0 180 0 360 0.02
#C 2 theta =0.000000 to 180 deg
#C   q   =0.000000 to 81.568 nm^-1
#C  chi  =0.000000 to 360 deg
#C collumns:
#C  1 position (2theta or chi in degrees)
#C  2 average intensity (sum of all counts in the region divided with number of pixels)
#C  3 Number of pixels in region)
#C  4 error (sum of sqrt(intensity) for all pixels divided by number)
#N 4
#L TTh  Int  N_pix  Err
32.99 	0.131148 	61 	0.131148
33.03 	0.061107 	1391 	0.059423
33.07 	0.061951 	2050 	0.059951
33.11 	0.063591 	2579 	0.062455
33.15 	0.059020 	2999 	0.058434
33.19 	0.058348 	3342 	0.057121
33.23 	0.057905 	3523 	0.057074
33.27 	0.057300 	3630 	0.056332
33.31 	0.058743 	3660 	0.058103
33.35 	0.064970 	3694 	0.063860
33.39 	0.059533 	3729 	0.057962
33.43 	0.053975 	3761 	0.053040
33.47 	0.061348 	3798 	0.060577
33.51 	0.055308 	3815 	0.054361
33.55 	0.058808 	3843 	0.057741
33.59 	0.061082 	3880 	0.060026
33.63 	0.059964 	3919 	0.059366
33.67 	0.061457 	3954 	0.061160
33.71 	0.062893 	3975 	0.061714
33.75 	0.066267 	3999 	0.065388
33.79 	0.067063 	4041 	0.066193
33.83 	0.065679 	4050 	0.064377
33.87 	0.060326 	4111 	0.060041
33.91 	0.052061 	4149 	0.051214
33.95 	0.064817 	4181 	0.063836
33.99 	0.063095 	4200 	0.062537
34.03 	0.056079 	4244 	0.055389
34.07 	0.061621 	4268 	0.060523
34.11 	0.060205 	4302 	0.058707
34.15 	0.053106 	4331 	0.052159
34.19 	0.060752 	4362 	0.059118
34.23 	0.058957 	4393 	0.058135
34.27 	0.064450 	4422 	0.062993
34.31 	0.058546 	4458 	0.057079
34.35 	0.056869 	4484 	0.055824
34.39 	0.061084 	4502 	0.060303
34.43 	0.058603 	4539 	0.057033
34.47 	0.056620 	4592 	0.055982
34.51 	0.066652 	4606 	0.065380
34.55 	0.057506 	4643 	0.056118
34.59 	0.057326 	4675 	0.056303
34.63 	0.056900 	4710 	0.055905
34.67 	0.049989 	4741 	0.049125
34.71 	0.053084 	4766 	0.051855
34.75 	0.059068 	4808 	0.058215
34.79 	0.055556 	4824 	0.054443
34.83 	0.054710 	4862 	0.054349
34.87 	0.051561 	4868 	0.051080
34.91 	0.057354 	4882 	0.056514
34.95 	0.064826 	4890 	0.063508
34.99 	0.052890 	4897 	0.052291
35.03 	0.060085 	4943 	0.058900
35.07 	0.059919 	4940 	0.058970
35.11 	0.053770 	4947 	0.053178
35.15 	0.053271 	4937 	0.052678
35.19 	0.054229 	4942 	0.053162
35.23 	0.057027 	4945 	0.055961
35.27 	0.055982 	4948 	0.055272
35.31 	0.061829 	4933 	0.060760
35.35 	0.054431 	4942 	0.053720
35.39 	0.055814 	4945 	0.054511
35.43 	0.055342 	4933 	0.054154
35.47 	0.060637 	4931 	0.059686
35.51 	0.055014 	4926 	0.054519
35.55 	0.053589 	4945 	0.052642
35.59 	0.053994 	4945 	0.053283
35.63 	0.055634 	4943 	0.054212
35.67 	0.056050 	4942 	0.054983
35.71 	0.056309 	4937 	0.055360
35.75 	0.064693 	4931 	0.063386
35.79 	0.063058 	4932 	0.062107
35.83 	0.056611 	4946 	0.055664
35.87 	0.056267 	4923 	0.054958
35.91 	0.059468 	4927 	0.059112
35.95 	0.058776 	4917 	0.057823
35.99 	0.052237 	4939 	0.051881
36.03 	0.056443 	4943 	0.055021
36.07 	0.054464 	4939 	0.053397
36.11 	0.053155 	4929 	0.052442
36.15 	0.060134 	4939 	0.059541
36.19 	0.049798 	4940 	0.048711
36.23 	0.054711 	4935 	0.054118
36.27 	0.056650 	4925 	0.055222
36.31 	0.055398 	4928 	0.055279
36.35 	0.054169 	4929 	0.053694
36.39 	0.055273 	4921 	0.054559
36.43 	0.055804 	4928 	0.055209
36.47 	0.060575 	4936 	0.059250
36.51 	0.056355 	4933 	0.055643
36.55 	0.055612 	4927 	0.055136
36.59 	0.056489 	4939 	0.055303
36.63 	0.060434 	4931 	0.059840
36.67 	0.055578 	4930 	0.054390
36.71 	0.052022 	4921 	0.050812
36.75 	0.057443 	4944 	0.056259
36.79 	0.056289 	4921 	0.055218
36.83 	0.057375 	4915 	0.056899
36.87 	0.057241 	4944 	0.056293
36.91 	0.056466 	4941 	0.055380
36.95 	0.054328 	4933 	0.053121
36.99 	0.055724 	4935 	0.054894
37.03 	0.052600 	4924 	0.051648
37.07 	0.054509 	4935 	0.053678
37.11 	0.058967 	4935 	0.057661
37.15 	0.055408 	4909 	0.054096
37.19 	0.056244 	4925 	0.054816
37.23 	0.062830 	4918 	0.062116
37.27 	0.056600 	4894 	0.054805
37.31 	0.055319 	4935 	0.054488
37.35 	0.057513 	4938 	0.056801
37.39 	0.055770 	4931 	0.054700
37.43 	0.054339 	4932 	0.053745
37.47 	0.056807 	4929 	0.055737
37.51 	0.054328 	4933 	0.053734
37.55 	0.049899 	4930 	0.049542
37.59 	0.053510 	4915 	0.052795
37.63 	0.057939 	4919 	0.056867
37.67 	0.051591 	4904 	0.050874
37.71 	0.054981 	4929 	0.054387
37.75 	0.058907 	4940 	0.058057
37.79 	0.057606 	4930 	0.056418
37.83 	0.055081 	4920 	0.053772
37.87 	0.050618 	4939 	0.049669
37.91 	0.054361 	4930 	0.053886
37.95 	0.052835 	4921 	0.052240
37.99 	0.057003 	4912 	0.055691
38.03 	0.061112 	4909 	0.060158
38.07 	0.050316 	4909 	0.049480
38.11 	0.059169 	4935 	0.058338
38.15 	0.059780 	4918 	0.058828
38.19 	0.054767 	4930 	0.053559
38.23 	0.060551 	4938 	0.059246
38.27 	0.057809 	4930 	0.056621
38.31 	0.061904 	4927 	0.060358
38.35 	0.064935 	4928 	0.063390
38.39 	0.067631 	4909 	0.066318
38.43 	0.075264 	4916 	0.073319
38.47 	0.072753 	4907 	0.071321
38.51 	0.076642 	4932 	0.075811
38.55 	0.074959 	4936 	0.073140
38.59 	0.071690 	4924 	0.070262
38.63 	0.073111 	4924 	0.071684
38.67 	0.069273 	4937 	0.068086
38.71 	0.059708 	4924 	0.059351
38.75 	0.065963 	4927 	0.064774
38.79 	0.054722 	4934 	0.053773
38.83 	0.063428 	4919 	0.061879
38.87 	0.057422 	4911 	0.056349
38.91 	0.048542 	4903 	0.048064
38.95 	0.056527 	4918 	0.055693
38.99 	0.053676 	4937 	0.052727
39.03 	0.046818 	4934 	0.046462
39.07 	0.044476 	4924 	0.044000
39.11 	0.049280 	4931 	0.048448
39.15 	0.048220 	4915 	0.047366
39.19 	0.042506 	4917 	0.042267
39.23 	0.047107 	4925 	0.046354
39.27 	0.047454 	4910 	0.046858
39.31 	0.047502 	4884 	0.046662
39.35 	0.042553 	4935 	0.041821
39.39 	0.046865 	4929 	0.046152
39.43 	0.044800 	4933 	0.043969
39.47 	0.044079 	4923 	0.043365
39.51 	0.047319 	4924 	0.046348
39.55 	0.043505 	4919 	0.042909
39.59 	0.046621 	4912 	0.046024
39.63 	0.049980 	4922 	0.049623
39.67 	0.043965 	4913 	0.043369
39.71 	0.037998 	4895 	0.037519
39.75 	0.040990 	4928 	0.040634
39.79 	0.043037 	4926 	0.042442
39.83 	0.041548 	4934 	0.041192
39.87 	0.043249 	4925 	0.043011
39.91 	0.046119 	4922 	0.045881
39.95 	0.044354 	4915 	0.043639
39.99 	0.043593 	4932 	0.043237
40.03 	0.042208 	4928 	0.041683
40.07 	0.041438 	4923 	0.040962
40.11 	0.041497 	4916 	0.041021
40.15 	0.046815 	4913 	0.046338
40.19 	0.047271 	4929 	0.046558
40.23 	0.046026 	4932 	0.045076
40.27 	0.038485 	4937 	0.038109
40.31 	0.040899 	4939 	0.040187
40.35 	0.045334 	4919 	0.045096
40.39 	0.043196 	4931 	0.042840
40.43 	0.043275 	4922 	0.042918
40.47 	0.037210 	4918 	0.036853
40.51 	0.040024 	4922 	0.039667
40.55 	0.043399 	4908 	0.042921
40.59 	0.042941 	4937 	0.042466
40.63 	0.036714 	4930 	0.036239
40.67 	0.041971 	4932 	0.041496
40.71 	0.041160 	4932 	0.040685
40.75 	0.040965 	4931 	0.040609
40.79 	0.038587 	4924 	0.038349
40.83 	0.046063 	4928 	0.046063
40.87 	0.036526 	4928 	0.036407
40.91 	0.042251 	4923 	0.041537
40.95 	0.040301 	4913 	0.039824
40.99 	0.044882 	4924 	0.044149
41.03 	0.047095 	4905 	0.046378
41.07 	0.043205 	4930 	0.042492
41.11 	0.039919 	4935 	0.039187
41.15 	0.043918 	4941 	0.043444
41.19 	0.039757 	4930 	0.038806
41.23 	0.037659 	4939 	0.037066
41.27 	0.043196 	4931 	0.042365
41.31 	0.039935 	4933 	0.038709
41.35 	0.037870 	4938 	0.037751
41.39 	0.040138 	4933 	0.039544
41.43 	0.043214 	4929 	0.042382
41.47 	0.038571 	4926 	0.037976
41.51 	0.042510 	4940 	0.042154
41.55 	0.046403 	4935 	0.045572
41.59 	0.038719 	4933 	0.038481
41.63 	0.037262 	4938 	0.037025
41.67 	0.036437 	4940 	0.036319
41.71 	0.039927 	4934 	0.039927
41.75 	0.043619 	4929 	0.042787
41.79 	0.039644 	4944 	0.039407
41.83 	0.036729 	4928 	0.036372
41.87 	0.037285 	4935 	0.036929
41.91 	0.033023 	4936 	0.032429
41.95 	0.042182 	4931 	0.041826
41.99 	0.036290 	4905 	0.036290
42.03 	0.038267 	4939 	0.037911
42.07 	0.036662 	4937 	0.036069
42.11 	0.034580 	4945 	0.034107
42.15 	0.035642 	4938 	0.035642
42.19 	0.040342 	4908 	0.039626
42.23 	0.039248 	4892 	0.038649
42.27 	0.033238 	4874 	0.032637
42.31 	0.040165 	4855 	0.039682
42.35 	0.039686 	4838 	0.039323
42.39 	0.043089 	4804 	0.042357
42.43 	0.036311 	4792 	0.035944
42.47 	0.034627 	4765 	0.034136
42.51 	0.035631 	4743 	0.035384
42.55 	0.033985 	4708 	0.033736
42.59 	0.041235 	4729 	0.040987
42.63 	0.032916 	4709 	0.032418
42.67 	0.033732 	4684 	0.033232
42.71 	0.034742 	4663 	0.034490
42.75 	0.038553 	4617 	0.037644
42.79 	0.040594 	4582 	0.039954
42.83 	0.035273 	4536 	0.035015
42.87 	0.032896 	4499 	0.032636
42.91 	0.035458 	4456 	0.034910
42.95 	0.036005 	4416 	0.035607
42.99 	0.037400 	4385 	0.037133
43.03 	0.039695 	4333 	0.039560
43.07 	0.028399 	4296 	0.027989
43.11 	0.044653 	4255 	0.043965
43.15 	0.036852 	4206 	0.036574
43.19 	0.038150 	4194 	0.037451
43.23 	0.041165 	4154 	0.041024
43.27 	0.037272 	4105 	0.036701
43.31 	0.039225 	4079 	0.038651
43.35 	0.041171 	4032 	0.040880
43.39 	0.040730 	4002 	0.040730
43.43 	0.032828 	3960 	0.032680
43.47 	0.038256 	3921 	0.037658
43.51 	0.038174 	3877 	0.037872
43.55 	0.035425 	2964 	0.035425
43.59 	0.037801 	1746 	0.037465
43.63 	0.031968 	1001 	0.031383
43.67 	0.047809 	502 	0.047809
43.71 	0.025105 	239 	0.025105
43.75 	0.062500 	16 	0.062500

File: 25SC_s1_0029.002.dat
#F C:\frames\spec\25SC_s1_0029.002
#C title =s:29 frm:2 25SC_s1
#C wavelength =0.15406

#S 1  fr_average C:\frames\spec\25SC_s1_0029.002 C:\win32app\speccom\mask.axs chi 0 180 0 360 0.02
#C 2 theta =0.000000 to 180 deg
#C   q   =0.000000 to 81.568 nm^-1
#C  chi  =0.000000 to 360 deg
#C collumns:
#C  1 position (2theta or chi in degrees)
#C  2 average intensity (sum of all counts in the region divided with number of pixels)
#C  3 Number of pixels in region)
#C  4 error (sum of sqrt(intensity) for all pixels divided by number)
#N 4
#L TTh  Int  N_pix  Err
32.99 	0.065574 	61 	0.065574
33.03 	0.053918 	1391 	0.053497
33.07 	0.055610 	2050 	0.054753
33.11 	0.054672 	2579 	0.053537
33.15 	0.056352 	2999 	0.055766
33.19 	0.057750 	3342 	0.056873
33.23 	0.065853 	3523 	0.064523
33.27 	0.054545 	3630 	0.054061
33.31 	0.056284 	3660 	0.054977
33.35 	0.057120 	3694 	0.056803
33.39 	0.056315 	3729 	0.054744
33.43 	0.060090 	3761 	0.058689
33.47 	0.061875 	3798 	0.060487
33.51 	0.057929 	3815 	0.057161
33.55 	0.060630 	3843 	0.060325
33.59 	0.055155 	3880 	0.053796
33.63 	0.059709 	3919 	0.058962
33.67 	0.055387 	3954 	0.054350
33.71 	0.059623 	3975 	0.059475
33.75 	0.060515 	3999 	0.060222
33.79 	0.059639 	4041 	0.058914
33.83 	0.053333 	4050 	0.052466
33.87 	0.059596 	4111 	0.059169
33.91 	0.058568 	4149 	0.056992
33.95 	0.059077 	4181 	0.058656
33.99 	0.058810 	4200 	0.057833
34.03 	0.052780 	4244 	0.051952
34.07 	0.055530 	4268 	0.054843
34.11 	0.061367 	4302 	0.060550
34.15 	0.058647 	4331 	0.057700
34.19 	0.063274 	4362 	0.061931
34.23 	0.060779 	4393 	0.060112
34.27 	0.062189 	4422 	0.061394
34.31 	0.055406 	4458 	0.054355
34.35 	0.058430 	4484 	0.057907
34.39 	0.056641 	4502 	0.055861
34.43 	0.055299 	4539 	0.054266
34.47 	0.057491 	4592 	0.056981
34.51 	0.051238 	4606 	0.050347
34.55 	0.056429 	4643 	0.055041
34.59 	0.059465 	4675 	0.058463
34.63 	0.052229 	4710 	0.051359
34.67 	0.051255 	4741 	0.049772
34.71 	0.060428 	4766 	0.058830
34.75 	0.059276 	4808 	0.058302
34.79 	0.054104 	4824 	0.053254
34.83 	0.051419 	4862 	0.050696
34.87 	0.060189 	4868 	0.058725
34.91 	0.059812 	4882 	0.058972
34.95 	0.058487 	4890 	0.056929
34.99 	0.055748 	4897 	0.054433
35.03 	0.060692 	4943 	0.059033
35.07 	0.052024 	4940 	0.051313
35.11 	0.055387 	4947 	0.054913
35.15 	0.057930 	4937 	0.056862
35.19 	0.056657 	4942 	0.056164
35.23 	0.056218 	4945 	0.055271
35.27 	0.062449 	4948 	0.061029
35.31 	0.057571 	4933 	0.056265
35.35 	0.052813 	4942 	0.052101
35.39 	0.059656 	4945 	0.058709
35.43 	0.062639 	4933 	0.060858
35.47 	0.054756 	4931 	0.053667
35.51 	0.052172 	4926 	0.051578
35.55 	0.052983 	4945 	0.052489
35.59 	0.050556 	4945 	0.050319
35.63 	0.061906 	4943 	0.060958
35.67 	0.057669 	4942 	0.056958
35.71 	0.054487 	4937 	0.053656
35.75 	0.051714 	4931 	0.050407
35.79 	0.061233 	4932 	0.060164
35.83 	0.057622 	4946 	0.056320
35.87 	0.052407 	4923 	0.051217
35.91 	0.054191 	4927 	0.053121
35.95 	0.064063 	4917 	0.063230
35.99 	0.061551 	4939 	0.060602
36.03 	0.054825 	4943 	0.053877
36.07 	0.054869 	4939 	0.053802
36.11 	0.047068 	4929 	0.046712
36.15 	0.056894 	4939 	0.055333
36.19 	0.056073 	4940 	0.055361
36.23 	0.059777 	4935 	0.059065
36.27 	0.059289 	4925 	0.058338
36.31 	0.056412 	4928 	0.055224
36.35 	0.059241 	4929 	0.058152
36.39 	0.051209 	4921 	0.049900
36.43 	0.054383 	4928 	0.053670
36.47 	0.057739 	4936 	0.057146
36.51 	0.053720 	4933 	0.053007
36.55 	0.056018 	4927 	0.055186
36.59 	0.054262 	4939 	0.053788
36.63 	0.058609 	4931 	0.057421
36.67 	0.060446 	4930 	0.059377
36.71 	0.052632 	4921 	0.051203
36.75 	0.056230 	4944 	0.055400
36.79 	0.050803 	4921 	0.050069
36.83 	0.052289 	4915 	0.051574
36.87 	0.057241 	4944 	0.056056
36.91 	0.049787 	4941 	0.048958
36.95 	0.052301 	4933 	0.051707
36.99 	0.049240 	4935 	0.048528
37.03 	0.051584 	4924 	0.050751
37.07 	0.051672 	4935 	0.051078
37.11 	0.056130 	4935 	0.055536
37.15 	0.056223 	4909 	0.055249
37.19 	0.052792 	4925 	0.051721
37.23 	0.058560 	4918 	0.057469
37.27 	0.057213 	4894 	0.055517
37.31 	0.050051 	4935 	0.049220
37.35 	0.054273 	4938 	0.053205
37.39 	0.054147 	4931 	0.053197
37.43 	0.054136 	4932 	0.053305
37.47 	0.048083 	4929 	0.047607
37.51 	0.051490 	4933 	0.050421
37.55 	0.050913 	4930 	0.050061
37.59 	0.050051 	4915 	0.049455
37.63 	0.049604 	4919 	0.048651
37.67 	0.053018 	4904 	0.051823
37.71 	0.051126 	4929 	0.050532
37.75 	0.047571 	4940 	0.046741
37.79 	0.049899 	4930 	0.049542
37.83 	0.049187 	4920 	0.048592
37.87 	0.055679 	4939 	0.054730
37.91 	0.052333 	4930 	0.051739
37.95 	0.049380 	4921 	0.048309
37.99 	0.050285 	4912 	0.049450
38.03 	0.055612 	4909 	0.055015
38.07 	0.050519 	4909 	0.049684
38.11 	0.051874 	4935 	0.050925
38.15 	0.056324 	4918 	0.055609
38.19 	0.052535 	4930 	0.051704
38.23 	0.055691 	4938 	0.054485
38.27 	0.058215 	4930 	0.056869
38.31 	0.053988 	4927 	0.052423
38.35 	0.060877 	4928 	0.059926
38.39 	0.055408 	4909 	0.054573
38.43 	0.065704 	4916 	0.064393
38.47 	0.060933 	4907 	0.059620
38.51 	0.061436 	4932 	0.060367
38.55 	0.064019 	4936 	0.062833
38.59 	0.053209 	4924 	0.052257
38.63 	0.057880 	4924 	0.057285
38.67 	0.059145 	4937 	0.058315
38.71 	0.057474 	4924 	0.056879
38.75 	0.052567 	4927 	0.052092
38.79 	0.053912 	4934 	0.052962
38.83 	0.057939 	4919 	0.056867
38.87 	0.051517 	4911 	0.050443
38.91 	0.049358 	4903 	0.048760
38.95 	0.044124 	4918 	0.043885
38.99 	0.048410 	4937 	0.047817
39.03 	0.048845 	4934 	0.048370
39.07 	0.047522 	4924 	0.046690
39.11 	0.049077 	4931 	0.048008
39.15 	0.045371 	4915 	0.044775
39.19 	0.044539 	4917 	0.044420
39.23 	0.049137 	4925 	0.048186
39.27 	0.047862 	4910 	0.047484
39.31 	0.045250 	4884 	0.044890
39.35 	0.046606 	4935 	0.045656
39.39 	0.049503 	4929 	0.048909
39.43 	0.046422 	4933 	0.046185
39.47 	0.048954 	4923 	0.048716
39.51 	0.043461 	4924 	0.042033
39.55 	0.052246 	4919 	0.051294
39.59 	0.044788 	4912 	0.043834
39.63 	0.043478 	4922 	0.043240
39.67 	0.050478 	4913 	0.049405
39.71 	0.051073 	4895 	0.050355
39.75 	0.048093 	4928 	0.047855
39.79 	0.044255 	4926 	0.043660
39.83 	0.042967 	4934 	0.042611
39.87 	0.044873 	4925 	0.044397
39.91 	0.045104 	4922 	0.043913
39.95 	0.043744 	4915 	0.042771
39.99 	0.041363 	4932 	0.041006
40.03 	0.044237 	4928 	0.043999
40.07 	0.043673 	4923 	0.043435
40.11 	0.046379 	4916 	0.045903
40.15 	0.048850 	4913 	0.048135
40.19 	0.043417 	4929 	0.043179
40.23 	0.046634 	4932 	0.046397
40.27 	0.036054 	4937 	0.035679
40.31 	0.044948 	4939 	0.043881
40.35 	0.043911 	4919 	0.043673
40.39 	0.044210 	4931 	0.043735
40.43 	0.043072 	4922 	0.042596
40.47 	0.044530 	4918 	0.043816
40.51 	0.035351 	4922 	0.034975
40.55 	0.041972 	4908 	0.041734
40.59 	0.041118 	4937 	0.040999
40.63 	0.044828 	4930 	0.044709
40.67 	0.036699 	4932 	0.036343
40.71 	0.044809 	4932 	0.043978
40.75 	0.044210 	4931 	0.043735
40.79 	0.044070 	4924 	0.043832
40.83 	0.042208 	4928 	0.041970
40.87 	0.038149 	4928 	0.037555
40.91 	0.046313 	4923 	0.045361
40.95 	0.033991 	4913 	0.033872
40.99 	0.046913 	4924 	0.046437
41.03 	0.042202 	4905 	0.041366
41.07 	0.040568 	4930 	0.040093
41.11 	0.043566 	4935 	0.043092
41.15 	0.043311 	4941 	0.042600
41.19 	0.039351 	4930 	0.038757
41.23 	0.039887 	4939 	0.039294
41.27 	0.042588 	4931 	0.041994
41.31 	0.043179 	4933 	0.042704
41.35 	0.041717 	4938 	0.041243
41.39 	0.041760 	4933 	0.041166
41.43 	0.035707 	4929 	0.035331
41.47 	0.035120 	4926 	0.034525
41.51 	0.043725 	4940 	0.043132
41.55 	0.038501 	4935 	0.038263
41.59 	0.040949 	4933 	0.039979
41.63 	0.041312 	4938 	0.040956
41.67 	0.038866 	4940 	0.038511
41.71 	0.039319 	4934 	0.038844
41.75 	0.039156 	4929 	0.038562
41.79 	0.033576 	4944 	0.033221
41.83 	0.036120 	4928 	0.036120
41.87 	0.040729 	4935 	0.040373
41.91 	0.043355 	4936 	0.042999
41.95 	0.038126 	4931 	0.038007
41.99 	0.039348 	4905 	0.038989
42.03 	0.034015 	4939 	0.033541
42.07 	0.041726 	4937 	0.041370
42.11 	0.039232 	4945 	0.038995
42.15 	0.035237 	4938 	0.035118
42.19 	0.040342 	4908 	0.039746
42.23 	0.033933 	4892 	0.033813
42.27 	0.037751 	4874 	0.037150
42.31 	0.036663 	4855 	0.036181
42.35 	0.037205 	4838 	0.036600
42.39 	0.039342 	4804 	0.039220
42.43 	0.038815 	4792 	0.038570
42.47 	0.041553 	4765 	0.041061
42.51 	0.040270 	4743 	0.039776
42.55 	0.039082 	4708 	0.038958
42.59 	0.039543 	4729 	0.038800
42.63 	0.039286 	4709 	0.039038
42.67 	0.040137 	4684 	0.039491
42.71 	0.035385 	4663 	0.034882
42.75 	0.041802 	4617 	0.041421
42.79 	0.043867 	4582 	0.043739
42.83 	0.036596 	4536 	0.036080
42.87 	0.038675 	4499 	0.038415
42.91 	0.037478 	4456 	0.037346
42.95 	0.036911 	4416 	0.036381
42.99 	0.038084 	4385 	0.037550
43.03 	0.036695 	4333 	0.036154
43.07 	0.039804 	4296 	0.039395
43.11 	0.037133 	4255 	0.036444
43.15 	0.036852 	4206 	0.036852
43.19 	0.043872 	4194 	0.043453
43.23 	0.037554 	4154 	0.037272
43.27 	0.035323 	4105 	0.035037
43.31 	0.040941 	4079 	0.040654
43.35 	0.039187 	4032 	0.039187
43.39 	0.040730 	4002 	0.040437
43.43 	0.032071 	3960 	0.031627
43.47 	0.041826 	3921 	0.041378
43.51 	0.038690 	3877 	0.038539
43.55 	0.041161 	2964 	0.040370
43.59 	0.040664 	1746 	0.038987
43.63 	0.040959 	1001 	0.040959
43.67 	0.023904 	502 	0.023904
43.71 	0.058577 	239 	0.058577
43.75 	0.000000 	16 	0.000000