Folder: Bessy-II-KMC-II-insitu-sin2psi/Example_Data (part 59)

File: 25SC_s1_0024.000.dat
#F C:\frames\spec\25SC_s1_0024.000
#C title =s:24 frm:0 25SC_s1
#C wavelength =0.15406

#S 1  fr_average C:\frames\spec\25SC_s1_0024.000 C:\win32app\speccom\mask.axs chi 0 180 0 360 0.02
#C 2 theta =0.000000 to 180 deg
#C   q   =0.000000 to 81.568 nm^-1
#C  chi  =0.000000 to 360 deg
#C collumns:
#C  1 position (2theta or chi in degrees)
#C  2 average intensity (sum of all counts in the region divided with number of pixels)
#C  3 Number of pixels in region)
#C  4 error (sum of sqrt(intensity) for all pixels divided by number)
#N 4
#L TTh  Int  N_pix  Err
32.99 	0.049180 	61 	0.049180
33.03 	0.060388 	1391 	0.059546
33.07 	0.061951 	2050 	0.059618
33.11 	0.069794 	2579 	0.067977
33.15 	0.061020 	2999 	0.059458
33.19 	0.066427 	3342 	0.065025
33.23 	0.067272 	3523 	0.066773
33.27 	0.057300 	3630 	0.055848
33.31 	0.060383 	3660 	0.059742
33.35 	0.050623 	3694 	0.049988
33.39 	0.059265 	3729 	0.057800
33.43 	0.064079 	3761 	0.062988
33.47 	0.057135 	3798 	0.056364
33.51 	0.052687 	3815 	0.052073
33.55 	0.059068 	3843 	0.057697
33.59 	0.058505 	3880 	0.057146
33.63 	0.062006 	3919 	0.060511
33.67 	0.057663 	3954 	0.056774
33.71 	0.066415 	3975 	0.064352
33.75 	0.055264 	3999 	0.054385
33.79 	0.061866 	4041 	0.060851
33.83 	0.056543 	4050 	0.055675
33.87 	0.054731 	4111 	0.053591
33.91 	0.055194 	4149 	0.054347
33.95 	0.057881 	4181 	0.056900
33.99 	0.064762 	4200 	0.062949
34.03 	0.059849 	4244 	0.059021
34.07 	0.062793 	4268 	0.061558
34.11 	0.056253 	4302 	0.054891
34.15 	0.058647 	4331 	0.057294
34.19 	0.053187 	4362 	0.052247
34.23 	0.053494 	4393 	0.052827
34.27 	0.059249 	4422 	0.058189
34.31 	0.054284 	4458 	0.053496
34.35 	0.055308 	4484 	0.054524
34.39 	0.055309 	4502 	0.054788
34.43 	0.060806 	4539 	0.060161
34.47 	0.055749 	4592 	0.054984
34.51 	0.054494 	4606 	0.053477
34.55 	0.055568 	4643 	0.054558
34.59 	0.050481 	4675 	0.049584
34.63 	0.054989 	4710 	0.054492
34.67 	0.050411 	4741 	0.049794
34.71 	0.053924 	4766 	0.053063
34.75 	0.055116 	4808 	0.053776
34.79 	0.053068 	4824 	0.052218
34.83 	0.061909 	4862 	0.060202
34.87 	0.051767 	4868 	0.051045
34.91 	0.054691 	4882 	0.053611
34.95 	0.060941 	4890 	0.060082
34.99 	0.056157 	4897 	0.055200
35.03 	0.056646 	4943 	0.056409
35.07 	0.052834 	4940 	0.051866
35.11 	0.050940 	4947 	0.050348
35.15 	0.053879 	4937 	0.053523
35.19 	0.062525 	4942 	0.061340
35.23 	0.057432 	4945 	0.056228
35.27 	0.059418 	4948 	0.058234
35.31 	0.059599 	4933 	0.058649
35.35 	0.054229 	4942 	0.053755
35.39 	0.055207 	4945 	0.053904
35.43 	0.057977 	4933 	0.057146
35.47 	0.051308 	4931 	0.050239
35.51 	0.058465 	4926 	0.057276
35.55 	0.049949 	4945 	0.049101
35.59 	0.052781 	4945 	0.052070
35.63 	0.059883 	4943 	0.058698
35.67 	0.050992 	4942 	0.050280
35.71 	0.058132 	4937 	0.057045
35.75 	0.058406 	4931 	0.057456
35.79 	0.062652 	4932 	0.061227
35.83 	0.048726 	4946 	0.047759
35.87 	0.055454 	4923 	0.054978
35.91 	0.059671 	4927 	0.058839
35.95 	0.061420 	4917 	0.059513
35.99 	0.056692 	4939 	0.055624
36.03 	0.059478 	4943 	0.058056
36.07 	0.062968 	4939 	0.062138
36.11 	0.059444 	4929 	0.058850
36.15 	0.058514 	4939 	0.057565
36.19 	0.059109 	4940 	0.057805
36.23 	0.053901 	4935 	0.052832
36.27 	0.054213 	4925 	0.053618
36.31 	0.057833 	4928 	0.057120
36.35 	0.058633 	4929 	0.057563
36.39 	0.061979 	4921 	0.061146
36.43 	0.054789 	4928 	0.053818
36.47 	0.055916 	4936 	0.055560
36.51 	0.059193 	4933 	0.057768
36.55 	0.053582 	4927 	0.053107
36.59 	0.064993 	4939 	0.063807
36.63 	0.056175 	4931 	0.055581
36.67 	0.057201 	4930 	0.056369
36.71 	0.057509 	4921 	0.056080
36.75 	0.056432 	4944 	0.055958
36.79 	0.049787 	4921 	0.048934
36.83 	0.052289 	4915 	0.051574
36.87 	0.058657 	4944 	0.058065
36.91 	0.056466 	4941 	0.056111
36.95 	0.055342 	4933 	0.054510
36.99 	0.060588 	4935 	0.059757
37.03 	0.057880 	4924 	0.056809
37.07 	0.056940 	4935 	0.055872
37.11 	0.060790 	4935 	0.060059
37.15 	0.054390 	4909 	0.053555
37.19 	0.061726 	4925 	0.061131
37.23 	0.058967 	4918 	0.058133
37.27 	0.060482 	4894 	0.059405
37.31 	0.057345 	4935 	0.056752
37.35 	0.055691 	4938 	0.054979
37.39 	0.058406 	4931 	0.057931
37.43 	0.051095 	4932 	0.050244
37.47 	0.061270 	4929 	0.060795
37.51 	0.056761 	4933 	0.055197
37.55 	0.053753 	4930 	0.052327
37.59 	0.057172 	4915 	0.056099
37.63 	0.060175 	4919 	0.059341
37.67 	0.059135 	4904 	0.057224
37.71 	0.051938 	4929 	0.051224
37.75 	0.053036 	4940 	0.052088
37.79 	0.060041 	4930 	0.058615
37.83 	0.060366 	4920 	0.059394
37.87 	0.057299 	4939 	0.055500
37.91 	0.046653 	4930 	0.046178
37.95 	0.054867 	4921 	0.054629
37.99 	0.057003 	4912 	0.056645
38.03 	0.058260 	4909 	0.057167
38.07 	0.055612 	4909 	0.054777
38.11 	0.053495 	4935 	0.052665
38.15 	0.057544 	4918 	0.056710
38.19 	0.056998 	4930 	0.055929
38.23 	0.063589 	4938 	0.062758
38.27 	0.057809 	4930 	0.056621
38.31 	0.065557 	4927 	0.064606
38.35 	0.068791 	4928 	0.067245
38.39 	0.071501 	4909 	0.070069
38.43 	0.081367 	4916 	0.079660
38.47 	0.074180 	4907 	0.072389
38.51 	0.077859 	4932 	0.075840
38.55 	0.085292 	4936 	0.082760
38.59 	0.088749 	4924 	0.086489
38.63 	0.077376 	4924 	0.075334
38.67 	0.077983 	4937 	0.076321
38.71 	0.076158 	4924 	0.073709
38.75 	0.077938 	4927 	0.075778
38.79 	0.063640 	4934 	0.061939
38.83 	0.072169 	4919 	0.069887
38.87 	0.062105 	4911 	0.061151
38.91 	0.056700 	4903 	0.055505
38.95 	0.059577 	4918 	0.058743
38.99 	0.058132 	4937 	0.057183
39.03 	0.053709 	4934 	0.052878
39.07 	0.055037 	4924 	0.053609
39.11 	0.050091 	4931 	0.049378
39.15 	0.045575 	4915 	0.044740
39.19 	0.049217 	4917 	0.048383
39.23 	0.047107 	4925 	0.046274
39.27 	0.049695 	4910 	0.049098
39.31 	0.053030 	4884 	0.052551
39.35 	0.050253 	4935 	0.049778
39.39 	0.041996 	4929 	0.041164
39.43 	0.049260 	4933 	0.048666
39.47 	0.049766 	4923 	0.049052
39.51 	0.042039 	4924 	0.041563
39.55 	0.048587 	4919 	0.047754
39.59 	0.045195 	4912 	0.044003
39.63 	0.043681 	4922 	0.043443
39.67 	0.048850 	4913 	0.048015
39.71 	0.048008 	4895 	0.047170
39.75 	0.049310 	4928 	0.048597
39.79 	0.051360 	4926 	0.051003
39.83 	0.042967 	4934 	0.042730
39.87 	0.042437 	4925 	0.042199
39.91 	0.046526 	4922 	0.046050
39.95 	0.041099 	4915 	0.040741
39.99 	0.044201 	4932 	0.043726
40.03 	0.044643 	4928 	0.044286
40.07 	0.044282 	4923 	0.043687
40.11 	0.044142 	4916 	0.043645
40.15 	0.041930 	4913 	0.041572
40.19 	0.048489 	4929 	0.047419
40.23 	0.042174 	4932 	0.041936
40.27 	0.044764 	4937 	0.044033
40.31 	0.039279 	4939 	0.039042
40.35 	0.043708 	4919 	0.043232
40.39 	0.044818 	4931 	0.044225
40.43 	0.039415 	4922 	0.038939
40.47 	0.039447 	4918 	0.039090
40.51 	0.041040 	4922 	0.040326
40.55 	0.042584 	4908 	0.041629
40.59 	0.043751 	4937 	0.043514
40.63 	0.037120 	4930 	0.036526
40.67 	0.041971 	4932 	0.041852
40.71 	0.040349 	4932 	0.039992
40.75 	0.044818 	4931 	0.044106
40.79 	0.044273 	4924 	0.043202
40.83 	0.044846 	4928 	0.044251
40.87 	0.044237 	4928 	0.043524
40.91 	0.041438 	4923 	0.041081
40.95 	0.043558 	4913 	0.042485
40.99 	0.038790 	4924 	0.038056
41.03 	0.037920 	4905 	0.037443
41.07 	0.041176 	4930 	0.040345
41.11 	0.042756 	4935 	0.042756
41.15 	0.046549 	4941 	0.045957
41.19 	0.042799 	4930 	0.042324
41.23 	0.040899 	4939 	0.040069
41.27 	0.039343 	4931 	0.038749
41.31 	0.034056 	4933 	0.033700
41.35 	0.041717 	4938 	0.041480
41.39 	0.041760 	4933 	0.041047
41.43 	0.037330 	4929 	0.037092
41.47 	0.042022 	4926 	0.041427
41.51 	0.038057 	4940 	0.037582
41.55 	0.037082 	4935 	0.037082
41.59 	0.037705 	4933 	0.036874
41.63 	0.041312 	4938 	0.040956
41.67 	0.045547 	4940 	0.045072
41.71 	0.038711 	4934 	0.038355
41.75 	0.043214 	4929 	0.042382
41.79 	0.045510 	4944 	0.044206
41.83 	0.042614 	4928 	0.042376
41.87 	0.033637 	4935 	0.033281
41.91 	0.040519 	4936 	0.040281
41.95 	0.040763 	4931 	0.040169
41.99 	0.043833 	4905 	0.042877
42.03 	0.037052 	4939 	0.036340
42.07 	0.035649 	4937 	0.035056
42.11 	0.048534 	4945 	0.047942
42.15 	0.044552 	4938 	0.043959
42.19 	0.041972 	4908 	0.041376
42.23 	0.041905 	4892 	0.041306
42.27 	0.043291 	4874 	0.043171
42.31 	0.031514 	4855 	0.030790
42.35 	0.039686 	4838 	0.038959
42.39 	0.043714 	4804 	0.043104
42.43 	0.040275 	4792 	0.040153
42.47 	0.036936 	4765 	0.036690
42.51 	0.040481 	4743 	0.040357
42.55 	0.041844 	4708 	0.041470
42.59 	0.035525 	4729 	0.035525
42.63 	0.042684 	4709 	0.042187
42.67 	0.042699 	4684 	0.042073
42.71 	0.038816 	4663 	0.038314
42.75 	0.038986 	4617 	0.038733
42.79 	0.036010 	4582 	0.035755
42.83 	0.034612 	4536 	0.034225
42.87 	0.044010 	4499 	0.043229
42.91 	0.037253 	4456 	0.037122
42.95 	0.032382 	4416 	0.031984
42.99 	0.036488 	4385 	0.035954
43.03 	0.036234 	4333 	0.035963
43.07 	0.037477 	4296 	0.036659
43.11 	0.039248 	4255 	0.039248
43.15 	0.031384 	4206 	0.031384
43.19 	0.039580 	4194 	0.038882
43.23 	0.041165 	4154 	0.040460
43.27 	0.036297 	4105 	0.036154
43.31 	0.035793 	4079 	0.035195
43.35 	0.040923 	4032 	0.040632
43.39 	0.033733 	4002 	0.033587
43.43 	0.039646 	3960 	0.039351
43.47 	0.037235 	3921 	0.037086
43.51 	0.038174 	3877 	0.038023
43.55 	0.037112 	2964 	0.036519
43.59 	0.038946 	1746 	0.038275
43.63 	0.031968 	1001 	0.031968
43.67 	0.025896 	502 	0.025896
43.71 	0.029289 	239 	0.029289
43.75 	0.062500 	16 	0.062500

File: 25SC_s1_0024.001.dat
#F C:\frames\spec\25SC_s1_0024.001
#C title =s:24 frm:1 25SC_s1
#C wavelength =0.15406

#S 1  fr_average C:\frames\spec\25SC_s1_0024.001 C:\win32app\speccom\mask.axs chi 0 180 0 360 0.02
#C 2 theta =0.000000 to 180 deg
#C   q   =0.000000 to 81.568 nm^-1
#C  chi  =0.000000 to 360 deg
#C collumns:
#C  1 position (2theta or chi in degrees)
#C  2 average intensity (sum of all counts in the region divided with number of pixels)
#C  3 Number of pixels in region)
#C  4 error (sum of sqrt(intensity) for all pixels divided by number)
#N 4
#L TTh  Int  N_pix  Err
32.99 	0.065574 	61 	0.065574
33.03 	0.058231 	1391 	0.056968
33.07 	0.068780 	2050 	0.067352
33.11 	0.055836 	2579 	0.054927
33.15 	0.059687 	2999 	0.058710
33.19 	0.057451 	3342 	0.056574
33.23 	0.060460 	3523 	0.058936
33.27 	0.058402 	3630 	0.057757
33.31 	0.059836 	3660 	0.058876
33.35 	0.056578 	3694 	0.055944
33.39 	0.062215 	3729 	0.060958
33.43 	0.060356 	3761 	0.059110
33.47 	0.055556 	3798 	0.054939
33.51 	0.059764 	3815 	0.059303
33.55 	0.067655 	3843 	0.066284
33.59 	0.062371 	3880 	0.060408
33.63 	0.061240 	3919 	0.059895
33.67 	0.069550 	3954 	0.068513
33.71 	0.057862 	3975 	0.056683
33.75 	0.052013 	3999 	0.051720
33.79 	0.057906 	4041 	0.057327
33.83 	0.060988 	4050 	0.060241
33.87 	0.050596 	4111 	0.050026
33.91 	0.063630 	4149 	0.062336
33.95 	0.052141 	4181 	0.050880
33.99 	0.050238 	4200 	0.049541
34.03 	0.058671 	4244 	0.056601
34.07 	0.051312 	4268 	0.050626
34.11 	0.058577 	4302 	0.057330
34.15 	0.060494 	4331 	0.059006
34.19 	0.055021 	4362 	0.054081
34.23 	0.055543 	4393 	0.054876
34.27 	0.057892 	4422 	0.057230
34.31 	0.065052 	4458 	0.063606
34.35 	0.062667 	4484 	0.061622
34.39 	0.055753 	4502 	0.055233
34.43 	0.059925 	4539 	0.059151
34.47 	0.051611 	4592 	0.051101
34.51 	0.053409 	4606 	0.052391
34.55 	0.054921 	4643 	0.054038
34.59 	0.056257 	4675 	0.054753
34.63 	0.059873 	4710 	0.059002
34.67 	0.051044 	4741 	0.049932
34.71 	0.053504 	4766 	0.052521
34.75 	0.058028 	4808 	0.057297
34.79 	0.050166 	4824 	0.049559
34.83 	0.055533 	4862 	0.054689
34.87 	0.055259 	4868 	0.054657
34.91 	0.060631 	4882 	0.059791
34.95 	0.057669 	4890 	0.057190
34.99 	0.060241 	4897 	0.059284
35.03 	0.058062 	4943 	0.056976
35.07 	0.053644 	4940 	0.052320
35.11 	0.058217 	4947 	0.056915
35.15 	0.061778 	4937 	0.060829
35.19 	0.056253 	4942 	0.055541
35.23 	0.052578 	4945 	0.052105
35.27 	0.056993 	4948 	0.056046
35.31 	0.053517 	4933 	0.053042
35.35 	0.064549 	4942 	0.063482
35.39 	0.059050 	4945 	0.057628
35.43 	0.064869 	4933 	0.064276
35.47 	0.052525 	4931 	0.051693
35.51 	0.065367 	4926 	0.064397
35.55 	0.053994 	4945 	0.052809
35.59 	0.060465 	4945 	0.060110
35.63 	0.059883 	4943 	0.059172
35.67 	0.052813 	4942 	0.051864
35.71 	0.058335 	4937 	0.057504
35.75 	0.056581 	4931 	0.056224
35.79 	0.056975 	4932 	0.055668
35.83 	0.057218 	4946 	0.056626
35.87 	0.056673 	4923 	0.055840
35.91 	0.056424 	4927 	0.055473
35.95 	0.055522 	4917 	0.054807
35.99 	0.054060 	4939 	0.053467
36.03 	0.061906 	4943 	0.061076
36.07 	0.058716 	4939 	0.057768
36.11 	0.057821 	4929 	0.056276
36.15 	0.056692 	4939 	0.055980
36.19 	0.050000 	4940 	0.049289
36.23 	0.052280 	4935 	0.051211
36.27 	0.061117 	4925 	0.060027
36.31 	0.047484 	4928 	0.046771
36.35 	0.059444 	4929 	0.057899
36.39 	0.056493 	4921 	0.056016
36.43 	0.059456 	4928 	0.058505
36.47 	0.060373 	4936 	0.058830
36.51 	0.057571 	4933 	0.056740
36.55 	0.053988 	4927 	0.053394
36.59 	0.058109 	4939 	0.057635
36.63 	0.057798 	4931 	0.057085
36.67 	0.056795 	4930 	0.055607
36.71 	0.058525 	4921 	0.058168
36.75 	0.057646 	4944 	0.056224
36.79 	0.055883 	4921 	0.055169
36.83 	0.059003 	4915 	0.058407
36.87 	0.057241 	4944 	0.055227
36.91 	0.058288 	4941 	0.057339
36.95 	0.056761 	4933 	0.055791
36.99 	0.058156 	4935 	0.057187
37.03 	0.058286 	4924 	0.057334
37.07 	0.056535 	4935 	0.055941
37.11 	0.056332 	4935 	0.055363
37.15 	0.065390 	4909 	0.064316
37.19 	0.055228 	4925 	0.054019
37.23 	0.061204 	4918 	0.059655
37.27 	0.055783 	4894 	0.054825
37.31 	0.060588 	4935 	0.059994
37.35 	0.055083 	4938 	0.054490
37.39 	0.054756 	4931 	0.053686
37.43 	0.054339 	4932 	0.053745
37.47 	0.055184 	4929 	0.054589
37.51 	0.057774 	4933 	0.056468
37.55 	0.058824 	4930 	0.058348
37.59 	0.054730 	4915 	0.053539
37.63 	0.056312 	4919 	0.055360
37.67 	0.055465 	4904 	0.054509
37.71 	0.058835 	4929 	0.057528
37.75 	0.050202 	4940 	0.049728
37.79 	0.052333 	4930 	0.051976
37.83 	0.061179 	4920 	0.060703
37.87 	0.052237 	4939 	0.051763
37.91 	0.056592 	4930 	0.055523
37.95 	0.059541 	4921 	0.057993
37.99 	0.055985 	4912 	0.054654
38.03 	0.057038 	4909 	0.055606
38.07 	0.050316 	4909 	0.049480
38.11 	0.053698 	4935 	0.053105
38.15 	0.059170 	4918 	0.057741
38.19 	0.056187 	4930 	0.055474
38.23 	0.054070 	4938 	0.053121
38.27 	0.061663 	4930 	0.060594
38.31 	0.063730 	4927 	0.062304
38.35 	0.060877 	4928 	0.060163
38.39 	0.066816 	4909 	0.065861
38.43 	0.070382 	4916 	0.068953
38.47 	0.075810 	4907 	0.074000
38.51 	0.074412 	4932 	0.072749
38.55 	0.076175 	4936 	0.074988
38.59 	0.068440 	4924 	0.067370
38.63 	0.078392 	4924 	0.076012
38.67 	0.073121 	4937 	0.071342
38.71 	0.072299 	4924 	0.070852
38.75 	0.062310 	4927 	0.061477
38.79 	0.057357 	4934 	0.056763
38.83 	0.062614 	4919 	0.061404
38.87 	0.058033 	4911 	0.057317
38.91 	0.053029 	4903 	0.052192
38.95 	0.047784 	4918 	0.047426
38.99 	0.054689 	4937 	0.054096
39.03 	0.053912 	4934 	0.053199
39.07 	0.052600 	4924 	0.051648
39.11 	0.051714 	4931 	0.051100
39.15 	0.046389 	4915 	0.045912
39.19 	0.046980 	4917 	0.046384
39.23 	0.047310 	4925 	0.046953
39.27 	0.044807 	4910 	0.044091
39.31 	0.047502 	4884 	0.047142
39.35 	0.047822 	4935 	0.047109
39.39 	0.048286 	4929 	0.047929
39.43 	0.053112 	4933 	0.052162
39.47 	0.045704 	4923 	0.045228
39.51 	0.044070 	4924 	0.043475
39.55 	0.043505 	4919 	0.042671
39.59 	0.046213 	4912 	0.045736
39.63 	0.041243 	4922 	0.040886
39.67 	0.043354 	4913 	0.042877
39.71 	0.045965 	4895 	0.045606
39.75 	0.046063 	4928 	0.045707
39.79 	0.046285 	4926 	0.046166
39.83 	0.046818 	4934 	0.046106
39.87 	0.046904 	4925 	0.046190
39.91 	0.038805 	4922 	0.038310
39.95 	0.046185 	4915 	0.045947
39.99 	0.045215 	4932 	0.044621
40.03 	0.046469 	4928 	0.045994
40.07 	0.039407 	4923 	0.039288
40.11 	0.048007 	4916 	0.047649
40.15 	0.041319 	4913 	0.040723
40.19 	0.040779 	4929 	0.040304
40.23 	0.035483 	4932 	0.034295
40.27 	0.047397 	4937 	0.046923
40.31 	0.040089 	4939 	0.039259
40.35 	0.037813 	4919 	0.037336
40.39 	0.041777 	4931 	0.040925
40.43 	0.043478 	4922 	0.043121
40.47 	0.043514 	4918 	0.042918
40.51 	0.048354 	4922 	0.047502
40.55 	0.044214 	4908 	0.043497
40.59 	0.040713 	4937 	0.040120
40.63 	0.038945 	4930 	0.038708
40.67 	0.042376 	4932 	0.042139
40.71 	0.038727 	4932 	0.038370
40.75 	0.040763 	4931 	0.040169
40.79 	0.045898 	4924 	0.045065
40.83 	0.037946 	4928 	0.037233
40.87 	0.035917 	4928 	0.035679
40.91 	0.042048 	4923 	0.041691
40.95 	0.041726 	4913 	0.040772
40.99 	0.044476 	4924 	0.043881
41.03 	0.040367 	4905 	0.040009
41.07 	0.044625 	4930 	0.044149
41.11 	0.043769 	4935 	0.043294
41.15 	0.043513 	4941 	0.043395
41.19 	0.046450 	4930 	0.045856
41.23 	0.044746 	4939 	0.044509
41.27 	0.042182 	4931 	0.041469
41.31 	0.038111 	4933 	0.037636
41.35 	0.037262 	4938 	0.036550
41.39 	0.037503 	4933 	0.037384
41.43 	0.039968 	4929 	0.039730
41.47 	0.047300 	4926 	0.046824
41.51 	0.044534 	4940 	0.043586
41.55 	0.040122 	4935 	0.040003
41.59 	0.039732 	4933 	0.039139
41.63 	0.035642 	4938 	0.035523
41.67 	0.039879 	4940 	0.039760
41.71 	0.043778 	4934 	0.043659
41.75 	0.036721 	4929 	0.036246
41.79 	0.039239 	4944 	0.038766
41.83 	0.037338 	4928 	0.036506
41.87 	0.044580 	4935 	0.043630
41.91 	0.038088 	4936 	0.038088
41.95 	0.042791 	4931 	0.042078
41.99 	0.043017 	4905 	0.042301
42.03 	0.036647 	4939 	0.036528
42.07 	0.034839 	4937 	0.034602
42.11 	0.041052 	4945 	0.040815
42.15 	0.036047 	4938 	0.035691
42.19 	0.038916 	4908 	0.038319
42.23 	0.041496 	4892 	0.041017
42.27 	0.046368 	4874 	0.045647
42.31 	0.036251 	4855 	0.036131
42.35 	0.039479 	4838 	0.039116
42.39 	0.038718 	4804 	0.038108
42.43 	0.033389 	4792 	0.032778
42.47 	0.035677 	4765 	0.035554
42.51 	0.037318 	4743 	0.037195
42.55 	0.037171 	4708 	0.036798
42.59 	0.037217 	4729 	0.037093
42.63 	0.043746 	4709 	0.043248
42.67 	0.040564 	4684 	0.040063
42.71 	0.040317 	4663 	0.040066
42.75 	0.034871 	4617 	0.034744
42.79 	0.043867 	4582 	0.043484
42.83 	0.042108 	4536 	0.041074
42.87 	0.040453 	4499 	0.040193
42.91 	0.038151 	4456 	0.037888
42.95 	0.035779 	4416 	0.035381
42.99 	0.036032 	4385 	0.035765
43.03 	0.039003 	4333 	0.038597
43.07 	0.040037 	4296 	0.039355
43.11 	0.039953 	4255 	0.039540
43.15 	0.036377 	4206 	0.035518
43.19 	0.040296 	4194 	0.040296
43.23 	0.037073 	4154 	0.036509
43.27 	0.040438 	4105 	0.039868
43.31 	0.038000 	4079 	0.037712
43.35 	0.041419 	4032 	0.041128
43.39 	0.039730 	4002 	0.039145
43.43 	0.038889 	3960 	0.038297
43.47 	0.036725 	3921 	0.036128
43.51 	0.038948 	3877 	0.038948
43.55 	0.033063 	2964 	0.032866
43.59 	0.035510 	1746 	0.034503
43.63 	0.040959 	1001 	0.040959
43.67 	0.049801 	502 	0.049801
43.71 	0.041841 	239 	0.041841
43.75 	0.000000 	16 	0.000000