Folder: Bessy-II-KMC-II-insitu-sin2psi/Example_Data (part 79)

File: 25SC_s1_0032.000.dat
#F C:\frames\spec\25SC_s1_0032.000
#C title =s:32 frm:0 25SC_s1
#C wavelength =0.15406

#S 1  fr_average C:\frames\spec\25SC_s1_0032.000 C:\win32app\speccom\mask.axs chi 0 180 0 360 0.02
#C 2 theta =0.000000 to 180 deg
#C   q   =0.000000 to 81.568 nm^-1
#C  chi  =0.000000 to 360 deg
#C collumns:
#C  1 position (2theta or chi in degrees)
#C  2 average intensity (sum of all counts in the region divided with number of pixels)
#C  3 Number of pixels in region)
#C  4 error (sum of sqrt(intensity) for all pixels divided by number)
#N 4
#L TTh  Int  N_pix  Err
32.99 	0.081967 	61 	0.081967
33.03 	0.056794 	1391 	0.055040
33.07 	0.052195 	2050 	0.052195
33.11 	0.065142 	2579 	0.064460
33.15 	0.072357 	2999 	0.070990
33.19 	0.062238 	3342 	0.060982
33.23 	0.057905 	3523 	0.056741
33.27 	0.058953 	3630 	0.057662
33.31 	0.058470 	3660 	0.057190
33.35 	0.063346 	3694 	0.061734
33.39 	0.057388 	3729 	0.056446
33.43 	0.056102 	3761 	0.055012
33.47 	0.056345 	3798 	0.055086
33.51 	0.058978 	3815 	0.058210
33.55 	0.065053 	3843 	0.063377
33.59 	0.065979 	3880 	0.064923
33.63 	0.071192 	3919 	0.069846
33.67 	0.060951 	3954 	0.060062
33.71 	0.053836 	3975 	0.052658
33.75 	0.059515 	3999 	0.057904
33.79 	0.054689 	4041 	0.054110
33.83 	0.062963 	4050 	0.062095
33.87 	0.065191 	4111 	0.064194
33.91 	0.065317 	4149 	0.063482
33.95 	0.053337 	4181 	0.052636
33.99 	0.062381 	4200 	0.060707
34.03 	0.051838 	4244 	0.051125
34.07 	0.061153 	4268 	0.059918
34.11 	0.059042 	4302 	0.057681
34.15 	0.060263 	4331 	0.059046
34.19 	0.055479 	4362 	0.054673
34.23 	0.061689 	4393 	0.060222
34.27 	0.058118 	4422 	0.057191
34.31 	0.063257 	4458 	0.061264
34.35 	0.056200 	4484 	0.055547
34.39 	0.060195 	4502 	0.059155
34.43 	0.057281 	4539 	0.057023
34.47 	0.054878 	4592 	0.053730
34.51 	0.053843 	4606 	0.053080
34.55 	0.055998 	4643 	0.054863
34.59 	0.057968 	4675 	0.057216
34.63 	0.051380 	4710 	0.050758
34.67 	0.057583 	4741 	0.056594
34.71 	0.055602 	4766 	0.054496
34.75 	0.060108 	4808 	0.059255
34.79 	0.059080 	4824 	0.057987
34.83 	0.058001 	4862 	0.057278
34.87 	0.060600 	4868 	0.059758
34.91 	0.058378 	4882 	0.057158
34.95 	0.055624 	4890 	0.054665
34.99 	0.058403 	4897 	0.057446
35.03 	0.062715 	4943 	0.061648
35.07 	0.063968 	4940 	0.063019
35.11 	0.061249 	4947 	0.060065
35.15 	0.057930 	4937 	0.056743
35.19 	0.057467 	4942 	0.056025
35.23 	0.054601 	4945 	0.053771
35.27 	0.059014 	4948 	0.058303
35.31 	0.057166 	4933 	0.056097
35.35 	0.056050 	4942 	0.054983
35.39 	0.059252 	4945 	0.058423
35.43 	0.059599 	4933 	0.058292
35.47 	0.057595 	4931 	0.055912
35.51 	0.067803 	4926 	0.066376
35.55 	0.055410 	4945 	0.054462
35.59 	0.056623 	4945 	0.055201
35.63 	0.060085 	4943 	0.058663
35.67 	0.052206 	4942 	0.051257
35.71 	0.055297 	4937 	0.054110
35.75 	0.055770 	4931 	0.054819
35.79 	0.051500 	4932 	0.051263
35.83 	0.057016 	4946 	0.056167
35.87 	0.059313 	4923 	0.058005
35.91 	0.061498 	4927 	0.060547
35.95 	0.055725 	4917 	0.054256
35.99 	0.060134 	4939 	0.059066
36.03 	0.060894 	4943 	0.060183
36.07 	0.058311 	4939 	0.057699
36.11 	0.061473 	4929 	0.060503
36.15 	0.057299 	4939 	0.056687
36.19 	0.061741 	4940 	0.060417
36.23 	0.058967 	4935 	0.058136
36.27 	0.064365 	4925 	0.063394
36.31 	0.061688 	4928 	0.060975
36.35 	0.057415 	4929 	0.056445
36.39 	0.058321 	4921 	0.056873
36.43 	0.062297 	4928 	0.061584
36.47 	0.053079 	4936 	0.052130
36.51 	0.055342 	4933 	0.054748
36.55 	0.053176 	4927 	0.052820
36.59 	0.060741 	4939 	0.059318
36.63 	0.054553 	4931 	0.053365
36.67 	0.059026 	4930 	0.057937
36.71 	0.056696 	4921 	0.055863
36.75 	0.055218 	4944 	0.054981
36.79 	0.061370 	4921 	0.060060
36.83 	0.069786 	4915 	0.068952
36.87 	0.055016 	4944 	0.054305
36.91 	0.058895 	4941 	0.057591
36.95 	0.060612 	4933 	0.059543
36.99 	0.064235 	4935 	0.063167
37.03 	0.058489 	4924 	0.058013
37.07 	0.059574 	4935 	0.058862
37.11 	0.059372 	4935 	0.058185
37.15 	0.056020 	4909 	0.054588
37.19 	0.059086 	4925 	0.058135
37.23 	0.059577 	4918 	0.058267
37.27 	0.062730 	4894 	0.062131
37.31 	0.052685 	4935 	0.051953
37.35 	0.060551 	4938 	0.059483
37.39 	0.055770 	4931 	0.055176
37.43 	0.059002 	4932 	0.057815
37.47 	0.052343 	4929 	0.051155
37.51 	0.053112 	4933 	0.052637
37.55 	0.052130 	4930 	0.051417
37.59 	0.051679 	4915 	0.050944
37.63 	0.058142 	4919 	0.057189
37.67 	0.057708 	4904 	0.056394
37.71 	0.058024 	4929 	0.057192
37.75 	0.057085 	4940 	0.056492
37.79 	0.054361 	4930 	0.053292
37.83 	0.058943 	4920 	0.058110
37.87 	0.056084 	4939 	0.054780
37.91 	0.050710 	4930 	0.050235
37.95 	0.059744 	4921 	0.058911
37.99 	0.056800 	4912 	0.055726
38.03 	0.057649 	4909 	0.056814
38.07 	0.056427 	4909 	0.055353
38.11 	0.059980 	4935 	0.059268
38.15 	0.056527 	4918 	0.055693
38.19 	0.063286 	4930 	0.062454
38.23 	0.059133 	4938 	0.058540
38.27 	0.070791 	4930 	0.068870
38.31 	0.062513 	4927 	0.061443
38.35 	0.072646 	4928 	0.071576
38.39 	0.071909 	4909 	0.070238
38.43 	0.071806 	4916 	0.070576
38.47 	0.082128 	4907 	0.080059
38.51 	0.084753 	4932 	0.082496
38.55 	0.083063 	4936 	0.081007
38.59 	0.076970 	4924 	0.075899
38.63 	0.080626 	4924 	0.078960
38.67 	0.075957 	4937 	0.073920
38.71 	0.072502 	4924 	0.070837
38.75 	0.063325 	4927 	0.062255
38.79 	0.073166 	4934 	0.072216
38.83 	0.062208 	4919 	0.061255
38.87 	0.061087 	4911 	0.060133
38.91 	0.053029 	4903 	0.052173
38.95 	0.056527 	4918 	0.055098
38.99 	0.052056 	4937 	0.051344
39.03 	0.049453 	4934 	0.048859
39.07 	0.048132 	4924 	0.047537
39.11 	0.049280 	4931 	0.048567
39.15 	0.050051 	4915 	0.049693
39.19 	0.053081 	4917 	0.052485
39.23 	0.045076 	4925 	0.044125
39.27 	0.047658 	4910 	0.046703
39.31 	0.053440 	4884 	0.052960
39.35 	0.046606 	4935 	0.046131
39.39 	0.046257 	4929 	0.045544
39.43 	0.047638 	4933 	0.047282
39.47 	0.048345 	4923 	0.047869
39.51 	0.044882 	4924 	0.044149
39.55 	0.040455 	4919 	0.039622
39.59 	0.043974 	4912 	0.043497
39.63 	0.043885 	4922 	0.043290
39.67 	0.047425 	4913 	0.046114
39.71 	0.045557 	4895 	0.045078
39.75 	0.049919 	4928 	0.049206
39.79 	0.048721 	4926 	0.048364
39.83 	0.047223 	4934 	0.046392
39.87 	0.042843 	4925 	0.042248
39.91 	0.044088 	4922 	0.043612
39.95 	0.043744 	4915 	0.043386
39.99 	0.048256 	4932 	0.047425
40.03 	0.047687 	4928 	0.047092
40.07 	0.052204 	4923 	0.051589
40.11 	0.042921 	4916 	0.042325
40.15 	0.044576 	4913 	0.044218
40.19 	0.045445 	4929 	0.045089
40.23 	0.043593 	4932 	0.042880
40.27 	0.046182 	4937 	0.045470
40.31 	0.042519 	4939 	0.042044
40.35 	0.043301 	4919 	0.042706
40.39 	0.047049 	4931 	0.046337
40.43 	0.046729 	4922 	0.045896
40.47 	0.046157 	4918 	0.045661
40.51 	0.045510 	4922 	0.044677
40.55 	0.044825 	4908 	0.043870
40.59 	0.040105 	4937 	0.039730
40.63 	0.040974 	4930 	0.040142
40.67 	0.044607 	4932 	0.044369
40.71 	0.041363 	4932 	0.040887
40.75 	0.042385 	4931 	0.042266
40.79 	0.045695 	4924 	0.045100
40.83 	0.045860 	4928 	0.045504
40.87 	0.044643 	4928 	0.044167
40.91 	0.044282 	4923 	0.043211
40.95 	0.042133 	4913 	0.041656
40.99 	0.040008 	4924 	0.039294
41.03 	0.043425 	4905 	0.043186
41.07 	0.040365 	4930 	0.039771
41.11 	0.042553 	4935 	0.041960
41.15 	0.043311 	4941 	0.042600
41.19 	0.039351 	4930 	0.038757
41.23 	0.040696 	4939 	0.040341
41.27 	0.041777 	4931 	0.041301
41.31 	0.036894 	4933 	0.036182
41.35 	0.047185 	4938 	0.046829
41.39 	0.043381 	4933 	0.042906
41.43 	0.047271 	4929 	0.046420
41.47 	0.036947 	4926 	0.036471
41.51 	0.038664 	4940 	0.038190
41.55 	0.041135 	4935 	0.040304
41.59 	0.043584 	4933 	0.043228
41.63 	0.041312 	4938 	0.040838
41.67 	0.037247 	4940 	0.036773
41.71 	0.043575 	4934 	0.042863
41.75 	0.039968 	4929 	0.039849
41.79 	0.042071 	4944 	0.041716
41.83 	0.040179 	4928 	0.039822
41.87 	0.039108 	4935 	0.038396
41.91 	0.036062 	4936 	0.035587
41.95 	0.038329 	4931 	0.037854
41.99 	0.045260 	4905 	0.045260
42.03 	0.037255 	4939 	0.037136
42.07 	0.043144 	4937 	0.042788
42.11 	0.043276 	4945 	0.042447
42.15 	0.036047 	4938 	0.035572
42.19 	0.039324 	4908 	0.038727
42.23 	0.041701 	4892 	0.041342
42.27 	0.035700 	4874 	0.035579
42.31 	0.038929 	4855 	0.038326
42.35 	0.037205 	4838 	0.036963
42.39 	0.041216 	4804 	0.040098
42.43 	0.033180 	4792 	0.032691
42.47 	0.042392 	4765 	0.041532
42.51 	0.033945 	4743 	0.033698
42.55 	0.034622 	4708 	0.034497
42.59 	0.040178 	4729 	0.039662
42.63 	0.033553 	4709 	0.033553
42.67 	0.043339 	4684 	0.043214
42.71 	0.037101 	4663 	0.036598
42.75 	0.035304 	4617 	0.035051
42.79 	0.036229 	4582 	0.035717
42.83 	0.044092 	4536 	0.043446
42.87 	0.038453 	4499 	0.038062
42.91 	0.037253 	4456 	0.036727
42.95 	0.034647 	4416 	0.034116
42.99 	0.039909 	4385 	0.039508
43.03 	0.039003 	4333 	0.038868
43.07 	0.037942 	4296 	0.037124
43.11 	0.039013 	4255 	0.038738
43.15 	0.041369 	4206 	0.040812
43.19 	0.038150 	4194 	0.037312
43.23 	0.038276 	4154 	0.037853
43.27 	0.036297 	4105 	0.035584
43.31 	0.034322 	4079 	0.033604
43.35 	0.045139 	4032 	0.044558
43.39 	0.036232 	4002 	0.035793
43.43 	0.038131 	3960 	0.037835
43.47 	0.040551 	3921 	0.040401
43.51 	0.032241 	3877 	0.032090
43.55 	0.040823 	2964 	0.040428
43.59 	0.041237 	1746 	0.040902
43.63 	0.055944 	1001 	0.055359
43.67 	0.033865 	502 	0.032698
43.71 	0.041841 	239 	0.041841
43.75 	0.000000 	16 	0.000000

File: 25SC_s1_0032.001.dat
#F C:\frames\spec\25SC_s1_0032.001
#C title =s:32 frm:1 25SC_s1
#C wavelength =0.15406

#S 1  fr_average C:\frames\spec\25SC_s1_0032.001 C:\win32app\speccom\mask.axs chi 0 180 0 360 0.02
#C 2 theta =0.000000 to 180 deg
#C   q   =0.000000 to 81.568 nm^-1
#C  chi  =0.000000 to 360 deg
#C collumns:
#C  1 position (2theta or chi in degrees)
#C  2 average intensity (sum of all counts in the region divided with number of pixels)
#C  3 Number of pixels in region)
#C  4 error (sum of sqrt(intensity) for all pixels divided by number)
#N 4
#L TTh  Int  N_pix  Err
32.99 	0.065574 	61 	0.055971
33.03 	0.070453 	1391 	0.068768
33.07 	0.064878 	2050 	0.063164
33.11 	0.061264 	2579 	0.059901
33.15 	0.053351 	2999 	0.052765
33.19 	0.063136 	3342 	0.061529
33.23 	0.058473 	3523 	0.057475
33.27 	0.055096 	3630 	0.054451
33.31 	0.056831 	3660 	0.055230
33.35 	0.057120 	3694 	0.055534
33.39 	0.062215 	3729 	0.061587
33.43 	0.059559 	3761 	0.059091
33.47 	0.058189 	3798 	0.057083
33.51 	0.057405 	3815 	0.057251
33.55 	0.059849 	3843 	0.058782
33.59 	0.054639 	3880 	0.054035
33.63 	0.056392 	3919 	0.054897
33.67 	0.060192 	3954 	0.059155
33.71 	0.058868 	3975 	0.058278
33.75 	0.063266 	3999 	0.061753
33.79 	0.060876 	4041 	0.059548
33.83 	0.061235 	4050 	0.060511
33.87 	0.061056 	4111 	0.060628
33.91 	0.058809 	4149 	0.057657
33.95 	0.054532 	4181 	0.054112
33.99 	0.062381 	4200 	0.061823
34.03 	0.050660 	4244 	0.050384
34.07 	0.058107 	4268 	0.057558
34.11 	0.058810 	4302 	0.057448
34.15 	0.060494 	4331 	0.059412
34.19 	0.056625 	4362 	0.055685
34.23 	0.056453 	4393 	0.055920
34.27 	0.066260 	4422 	0.064802
34.31 	0.059668 	4458 	0.058748
34.35 	0.064228 	4484 	0.063314
34.39 	0.060418 	4502 	0.059897
34.43 	0.056180 	4539 	0.055405
34.47 	0.057274 	4592 	0.056508
34.51 	0.056231 	4606 	0.055468
34.55 	0.053629 	4643 	0.052620
34.59 	0.047273 	4675 	0.046646
34.63 	0.050743 	4710 	0.049624
34.67 	0.056950 	4741 	0.056065
34.71 	0.053714 	4766 	0.053345
34.75 	0.058860 	4808 	0.058007
34.79 	0.048507 	4824 	0.047779
34.83 	0.058206 	4862 	0.057102
34.87 	0.058751 	4868 	0.057668
34.91 	0.057558 	4882 	0.056478
34.95 	0.055624 	4890 	0.054905
34.99 	0.059016 	4897 	0.058059
35.03 	0.050577 	4943 	0.049866
35.07 	0.059514 	4940 	0.058427
35.11 	0.055791 	4947 	0.055081
35.15 	0.058132 	4937 	0.057183
35.19 	0.056050 	4942 	0.055458
35.23 	0.053792 	4945 	0.052726
35.27 	0.054365 	4948 	0.053418
35.31 	0.057977 	4933 	0.056908
35.35 	0.052813 	4942 	0.051864
35.39 	0.056825 	4945 	0.055285
35.43 	0.054125 	4933 	0.053413
35.47 	0.053742 	4931 	0.052791
35.51 	0.056841 	4926 	0.056009
35.55 	0.055612 	4945 	0.054309
35.59 	0.057230 	4945 	0.056400
35.63 	0.054016 	4943 	0.053186
35.67 	0.056253 	4942 	0.055423
35.71 	0.053271 	4937 	0.052678
35.75 	0.060231 	4931 	0.059261
35.79 	0.063463 	4932 	0.062394
35.83 	0.054994 	4946 	0.054283
35.87 	0.059517 	4923 	0.058803
35.91 	0.055409 	4927 	0.054933
35.95 	0.055318 	4917 	0.055080
35.99 	0.060539 	4939 	0.059946
36.03 	0.055027 	4943 	0.054198
36.07 	0.060336 	4939 	0.058794
36.11 	0.051126 	4929 	0.050175
36.15 	0.058109 	4939 	0.057160
36.19 	0.057085 	4940 	0.055899
36.23 	0.062614 	4935 	0.062020
36.27 	0.058477 	4925 	0.057387
36.31 	0.057427 	4928 	0.056595
36.35 	0.057618 	4929 	0.056667
36.39 	0.046332 	4921 	0.045717
36.43 	0.065747 	4928 	0.064796
36.47 	0.059360 	4936 	0.058648
36.51 	0.056761 	4933 	0.055929
36.55 	0.056627 	4927 	0.056151
36.59 	0.060944 	4939 	0.059520
36.63 	0.054958 	4931 	0.054127
36.67 	0.055984 	4930 	0.054914
36.71 	0.053038 	4921 	0.052562
36.75 	0.052387 	4944 	0.052031
36.79 	0.055883 	4921 	0.054574
36.83 	0.051882 	4915 	0.051048
36.87 	0.058657 	4944 	0.057946
36.91 	0.054240 	4941 	0.053884
36.95 	0.055747 	4933 	0.054797
36.99 	0.056130 	4935 	0.055417
37.03 	0.058489 	4924 	0.057656
37.07 	0.046201 	4935 	0.045370
37.11 	0.054103 	4935 	0.053272
37.15 	0.056223 	4909 	0.055507
37.19 	0.054619 	4925 	0.053787
37.23 	0.058967 	4918 	0.057518
37.27 	0.055578 	4894 	0.054262
37.31 	0.050659 	4935 	0.050302
37.35 	0.051438 	4938 	0.050489
37.39 	0.064084 	4931 	0.063134
37.43 	0.047648 	4932 	0.047410
37.47 	0.050517 	4929 	0.049804
37.51 	0.055747 	4933 	0.055035
37.55 	0.053347 	4930 	0.052396
37.59 	0.052085 	4915 	0.051013
37.63 	0.052246 	4919 	0.051155
37.67 	0.056077 	4904 	0.055360
37.71 	0.052749 	4929 	0.051561
37.75 	0.055466 	4940 	0.054379
37.79 	0.052738 	4930 	0.051907
37.83 	0.054065 	4920 	0.053232
37.87 	0.052845 	4939 	0.051777
37.91 	0.050304 	4930 	0.049354
37.95 	0.052632 	4921 	0.051679
37.99 	0.053542 	4912 	0.052708
38.03 	0.055001 	4909 	0.054285
38.07 	0.056223 	4909 	0.055507
38.11 	0.053495 	4935 	0.052022
38.15 	0.056527 	4918 	0.055336
38.19 	0.059635 	4930 	0.058328
38.23 	0.057716 	4938 	0.056885
38.27 	0.065720 	4930 	0.064294
38.31 	0.066369 	4927 	0.065775
38.35 	0.065138 	4928 	0.063236
38.39 	0.072520 	4909 	0.070452
38.43 	0.070179 	4916 	0.069325
38.47 	0.068270 	4907 	0.066340
38.51 	0.073601 	4932 	0.072057
38.55 	0.074757 	4936 	0.073214
38.59 	0.074736 	4924 	0.073070
38.63 	0.071080 	4924 	0.069058
38.67 	0.077983 	4937 	0.076302
38.71 	0.070065 	4924 	0.068518
38.75 	0.060077 	4927 	0.058631
38.79 	0.064451 	4934 	0.063620
38.83 	0.049807 	4919 	0.049073
38.87 	0.057015 	4911 	0.055941
38.91 	0.055272 	4903 	0.054177
38.95 	0.055307 	4918 	0.054592
38.99 	0.042131 	4937 	0.041775
39.03 	0.045602 	4934 	0.044633
39.07 	0.048944 	4924 	0.048111
39.11 	0.054756 	4931 	0.053211
39.15 	0.051679 	4915 	0.050963
39.19 	0.050437 	4917 	0.050437
39.23 	0.044670 	4925 	0.044075
39.27 	0.043788 	4910 	0.042834
39.31 	0.039926 	4884 	0.039327
39.35 	0.045795 	4935 	0.045677
39.39 	0.051126 	4929 	0.049938
39.43 	0.045408 	4933 	0.044558
39.47 	0.045907 	4923 	0.045193
39.51 	0.047116 	4924 	0.046402
39.55 	0.044725 	4919 	0.044367
39.59 	0.042549 	4912 	0.041953
39.63 	0.041853 	4922 	0.041734
39.67 	0.039691 	4913 	0.039214
39.71 	0.049642 	4895 	0.048446
39.75 	0.044440 	4928 	0.043588
39.79 	0.044255 	4926 	0.043779
39.83 	0.048034 	4934 	0.047797
39.87 	0.040000 	4925 	0.039643
39.91 	0.044088 	4922 	0.043235
39.95 	0.044964 	4915 	0.044488
39.99 	0.040754 	4932 	0.039923
40.03 	0.042411 	4928 	0.041460
40.07 	0.043266 	4923 	0.042394
40.11 	0.039870 	4916 	0.039393
40.15 	0.044169 	4913 	0.043215
40.19 	0.043417 	4929 	0.043179
40.23 	0.045012 	4932 	0.044656
40.27 	0.037270 	4937 	0.036676
40.31 	0.048593 	4939 	0.048237
40.35 	0.045131 	4919 	0.044536
40.39 	0.048469 	4931 	0.047875
40.43 	0.040024 	4922 	0.039310
40.47 	0.042497 	4918 	0.041663
40.51 	0.042869 	4922 	0.042016
40.55 	0.037082 	4908 	0.036963
40.59 	0.042131 	4937 	0.041775
40.63 	0.039351 	4930 	0.038876
40.67 	0.042782 	4932 	0.042426
40.71 	0.043390 	4932 	0.042796
40.75 	0.037518 	4931 	0.037161
40.79 	0.043664 	4924 	0.043188
40.83 	0.038555 	4928 	0.037604
40.87 	0.048093 	4928 	0.047498
40.91 	0.046719 	4923 	0.046363
40.95 	0.034602 	4913 	0.034364
40.99 	0.046507 	4924 	0.046150
41.03 	0.040571 	4905 	0.040093
41.07 	0.037323 	4930 	0.036728
41.11 	0.039108 	4935 	0.038396
41.15 	0.044525 	4941 	0.044288
41.19 	0.038540 	4930 	0.038183
41.23 	0.045556 	4939 	0.044726
41.27 	0.037315 	4931 	0.036959
41.31 	0.041151 	4933 	0.040914
41.35 	0.041312 	4938 	0.040838
41.39 	0.047030 	4933 	0.046436
41.43 	0.036924 	4929 	0.036568
41.47 	0.041210 	4926 	0.040734
41.51 	0.039474 	4940 	0.038762
41.55 	0.036474 	4935 	0.035999
41.59 	0.034867 	4933 	0.034273
41.63 	0.040705 	4938 	0.040230
41.67 	0.042915 	4940 	0.042678
41.71 	0.039522 	4934 	0.038809
41.75 	0.037330 	4929 	0.036855
41.79 	0.039442 	4944 	0.039205
41.83 	0.040381 	4928 	0.040025
41.87 	0.039311 	4935 	0.038718
41.91 	0.035251 	4936 	0.035251
41.95 	0.034679 	4931 	0.034441
41.99 	0.041182 	4905 	0.040824
42.03 	0.033408 	4939 	0.033170
42.07 	0.038890 	4937 	0.038534
42.11 	0.041052 	4945 	0.040341
42.15 	0.033819 	4938 	0.033463
42.19 	0.036267 	4908 	0.035909
42.23 	0.042518 	4892 	0.042039
42.27 	0.038367 	4874 	0.038247
42.31 	0.038105 	4855 	0.037864
42.35 	0.038032 	4838 	0.037548
42.39 	0.035179 	4804 	0.034935
42.43 	0.041528 	4792 	0.040672
42.47 	0.040294 	4765 	0.040048
42.51 	0.037107 	4743 	0.036737
42.55 	0.033985 	4708 	0.033736
42.59 	0.038274 	4729 	0.037903
42.63 	0.033553 	4709 	0.033180
42.67 	0.038002 	4684 	0.037106
42.71 	0.036243 	4663 	0.035992
42.75 	0.036820 	4617 	0.036313
42.79 	0.037756 	4582 	0.037117
42.83 	0.038580 	4536 	0.037805
42.87 	0.032896 	4499 	0.032375
42.91 	0.039273 	4456 	0.038616
42.95 	0.032609 	4416 	0.032343
42.99 	0.034892 	4385 	0.034624
43.03 	0.036926 	4333 	0.036656
43.07 	0.040037 	4296 	0.039355
43.11 	0.037838 	4255 	0.037425
43.15 	0.038992 	4206 	0.037738
43.19 	0.036481 	4194 	0.036062
43.23 	0.038036 	4154 	0.038036
43.27 	0.037515 	4105 	0.037515
43.31 	0.034077 	4079 	0.033646
43.35 	0.037698 	4032 	0.036391
43.39 	0.036982 	4002 	0.036982
43.43 	0.038889 	3960 	0.038593
43.47 	0.034685 	3921 	0.034685
43.51 	0.039979 	3877 	0.039677
43.55 	0.043185 	2964 	0.043185
43.59 	0.036655 	1746 	0.036655
43.63 	0.030969 	1001 	0.030969
43.67 	0.035857 	502 	0.035857
43.71 	0.037657 	239 	0.037657
43.75 	0.125000 	16 	0.125000