Folder: Bessy-II-KMC-II-insitu-sin2psi/Example_Data (part 23)

File: 25SC_s1_0009.003.dat
#F C:\frames\spec\25SC_s1_0009.003
#C title =s:9 frm:3 25SC_s1
#C wavelength =0.15406

#S 1  fr_average C:\frames\spec\25SC_s1_0009.003 C:\win32app\speccom\mask.axs chi 0 180 0 360 0.02
#C 2 theta =0.000000 to 180 deg
#C   q   =0.000000 to 81.568 nm^-1
#C  chi  =0.000000 to 360 deg
#C collumns:
#C  1 position (2theta or chi in degrees)
#C  2 average intensity (sum of all counts in the region divided with number of pixels)
#C  3 Number of pixels in region)
#C  4 error (sum of sqrt(intensity) for all pixels divided by number)
#N 4
#L TTh  Int  N_pix  Err
32.99 	0.049180 	61 	0.049180
33.03 	0.069734 	1391 	0.067207
33.07 	0.062439 	2050 	0.061296
33.11 	0.077162 	2579 	0.075345
33.15 	0.058019 	2999 	0.057629
33.19 	0.059545 	3342 	0.058494
33.23 	0.054215 	3523 	0.053716
33.27 	0.053444 	3630 	0.051830
33.31 	0.062568 	3660 	0.061448
33.35 	0.062805 	3694 	0.061219
33.39 	0.062751 	3729 	0.061312
33.43 	0.064876 	3761 	0.064253
33.47 	0.063454 	3798 	0.062992
33.51 	0.066055 	3815 	0.064980
33.55 	0.062972 	3843 	0.061600
33.59 	0.062887 	3880 	0.061981
33.63 	0.063281 	3919 	0.062086
33.67 	0.062468 	3954 	0.061135
33.71 	0.066415 	3975 	0.065384
33.75 	0.060765 	3999 	0.059593
33.79 	0.055432 	4041 	0.054562
33.83 	0.060000 	4050 	0.058698
33.87 	0.060326 	4111 	0.059613
33.91 	0.060255 	4149 	0.059408
33.95 	0.056924 	4181 	0.055663
33.99 	0.056190 	4200 	0.055354
34.03 	0.054665 	4244 	0.054251
34.07 	0.063027 	4268 	0.060968
34.11 	0.067411 	4302 	0.066049
34.15 	0.061879 	4331 	0.061338
34.19 	0.058230 	4362 	0.057290
34.23 	0.051901 	4393 	0.051101
34.27 	0.055857 	4422 	0.055062
34.31 	0.059892 	4458 	0.058447
34.35 	0.054416 	4484 	0.053240
34.39 	0.056864 	4502 	0.055281
34.43 	0.061247 	4539 	0.059956
34.47 	0.059451 	4592 	0.058176
34.51 	0.061007 	4606 	0.060096
34.55 	0.060090 	4643 	0.059081
34.59 	0.057540 	4675 	0.055891
34.63 	0.051168 	4710 	0.050670
34.67 	0.057161 	4741 	0.056172
34.71 	0.056861 	4766 	0.056124
34.75 	0.058652 	4808 	0.057556
34.79 	0.056799 	4824 	0.055706
34.83 	0.058618 	4862 	0.057654
34.87 	0.064708 	4868 	0.063866
34.91 	0.061041 	4882 	0.059681
34.95 	0.064826 	4890 	0.063508
34.99 	0.060241 	4897 	0.059164
35.03 	0.061703 	4943 	0.060637
35.07 	0.064575 	4940 	0.063508
35.11 	0.060441 	4947 	0.059119
35.15 	0.060766 	4937 	0.060172
35.19 	0.059288 	4942 	0.058695
35.23 	0.057027 	4945 	0.056672
35.27 	0.066087 	4948 	0.065022
35.31 	0.061626 	4933 	0.060557
35.35 	0.056455 	4942 	0.055507
35.39 	0.055207 	4945 	0.053786
35.43 	0.058382 	4933 	0.057789
35.47 	0.060028 	4931 	0.058702
35.51 	0.055420 	4926 	0.054588
35.55 	0.060870 	4945 	0.059567
35.59 	0.062083 	4945 	0.061017
35.63 	0.057657 	4943 	0.056808
35.67 	0.058883 	4942 	0.058172
35.71 	0.063399 	4937 	0.061936
35.75 	0.063476 	4931 	0.062288
35.79 	0.061638 	4932 	0.060451
35.83 	0.060655 	4946 	0.059352
35.87 	0.057688 	4923 	0.057212
35.91 	0.067587 	4927 	0.066160
35.95 	0.060809 	4917 	0.059975
35.99 	0.055072 	4939 	0.054479
36.03 	0.060085 	4943 	0.058999
36.07 	0.053047 	4939 	0.052217
36.11 	0.054981 	4929 	0.054387
36.15 	0.061956 	4939 	0.060770
36.19 	0.064575 	4940 	0.063508
36.23 	0.061601 	4935 	0.059820
36.27 	0.058477 	4925 	0.057526
36.31 	0.060065 	4928 	0.058995
36.35 	0.062690 	4929 	0.061858
36.39 	0.061370 	4921 	0.059584
36.43 	0.056412 	4928 	0.054729
36.47 	0.055105 	4936 	0.054393
36.51 	0.055139 	4933 	0.054051
36.55 	0.054191 	4927 	0.053478
36.59 	0.052845 	4939 	0.052726
36.63 	0.056784 	4931 	0.055932
36.67 	0.060041 	4930 	0.058852
36.71 	0.062995 	4921 	0.060803
36.75 	0.051982 	4944 	0.051271
36.79 	0.065840 	4921 	0.065007
36.83 	0.052899 	4915 	0.052542
36.87 	0.052387 	4944 	0.052031
36.91 	0.059300 	4941 	0.058470
36.95 	0.051085 	4933 	0.050372
36.99 	0.060993 	4935 	0.060399
37.03 	0.057474 	4924 	0.056165
37.07 	0.052280 	4935 	0.051211
37.11 	0.052482 	4935 	0.050820
37.15 	0.052557 	4909 	0.052079
37.19 	0.054213 	4925 	0.053737
37.23 	0.056730 	4918 	0.056016
37.27 	0.052105 	4894 	0.051746
37.31 	0.060993 	4935 	0.059925
37.35 	0.057716 	4938 	0.056885
37.39 	0.053133 	4931 	0.051807
37.43 	0.055961 	4932 	0.055248
37.47 	0.060661 	4929 	0.059354
37.51 	0.056963 	4933 	0.055875
37.55 	0.054767 	4930 	0.054173
37.59 	0.054527 	4915 	0.053454
37.63 	0.055296 	4919 	0.054343
37.67 	0.046697 	4904 	0.045741
37.71 	0.055184 	4929 	0.054471
37.75 	0.053846 	4940 	0.052779
37.79 	0.046653 	4930 	0.046158
37.83 	0.052236 	4920 	0.051760
37.87 	0.050618 	4939 	0.050025
37.91 	0.054767 	4930 	0.053579
37.95 	0.054460 	4921 	0.053865
37.99 	0.056393 	4912 	0.055319
38.03 	0.057038 	4909 	0.056561
38.07 	0.053371 	4909 	0.052297
38.11 	0.058967 	4935 	0.057542
38.15 	0.052867 	4918 	0.051656
38.19 	0.056389 	4930 	0.055795
38.23 	0.059538 	4938 	0.058471
38.27 	0.049290 	4930 	0.048815
38.31 	0.053176 	4927 	0.052582
38.35 	0.060471 	4928 	0.059401
38.39 	0.065390 	4909 	0.064913
38.43 	0.056347 	4916 	0.055632
38.47 	0.064602 	4907 	0.063885
38.51 	0.062247 	4932 	0.060564
38.55 	0.063412 	4936 	0.062087
38.59 	0.058286 	4924 	0.057215
38.63 	0.061332 	4924 	0.060123
38.67 	0.061981 	4937 	0.060083
38.71 	0.051990 	4924 	0.051395
38.75 	0.053379 	4927 	0.052309
38.79 	0.055533 	4934 	0.054821
38.83 	0.052856 	4919 	0.052023
38.87 	0.051924 	4911 	0.050851
38.91 	0.056496 	4903 	0.055062
38.95 	0.050427 	4918 	0.049712
38.99 	0.049423 	4937 	0.049067
39.03 	0.050466 	4934 	0.049398
39.07 	0.056255 	4924 	0.055422
39.11 	0.051916 	4931 	0.051441
39.15 	0.047406 	4915 	0.046572
39.19 	0.049420 	4917 	0.048706
39.23 	0.048325 	4925 	0.047373
39.27 	0.046029 	4910 	0.045074
39.31 	0.046274 	4884 	0.045674
39.35 	0.050051 	4935 	0.049220
39.39 	0.043822 	4929 	0.043109
39.43 	0.054328 	4933 	0.053378
39.47 	0.053626 	4923 	0.052674
39.51 	0.049553 	4924 	0.049196
39.55 	0.044928 	4919 	0.044213
39.59 	0.054560 	4912 	0.054083
39.63 	0.049777 	4922 	0.049062
39.67 	0.047222 	4913 	0.046864
39.71 	0.049438 	4895 	0.048481
39.75 	0.044846 	4928 	0.044489
39.79 	0.051157 	4926 	0.050563
39.83 	0.049858 	4934 	0.049502
39.87 	0.047716 	4925 	0.047121
39.91 	0.049573 	4922 	0.048859
39.95 	0.048220 	4915 	0.047862
39.99 	0.044809 	4932 	0.043958
40.03 	0.054586 	4928 	0.053397
40.07 	0.048751 	4923 	0.048632
40.11 	0.053906 	4916 	0.052714
40.15 	0.046611 	4913 	0.046373
40.19 	0.048691 	4929 	0.048078
40.23 	0.052109 	4932 	0.051396
40.27 	0.047802 	4937 	0.047090
40.31 	0.044948 	4939 	0.044118
40.35 	0.043098 	4919 	0.042741
40.39 	0.042385 	4931 	0.041910
40.43 	0.044291 	4922 	0.044053
40.47 	0.044327 	4918 	0.043970
40.51 	0.046526 	4922 	0.045931
40.55 	0.046862 	4908 	0.046743
40.59 	0.043144 	4937 	0.042550
40.63 	0.049087 	4930 	0.048612
40.67 	0.041768 	4932 	0.041412
40.71 	0.042376 	4932 	0.042258
40.75 	0.043805 	4931 	0.043329
40.79 	0.041633 	4924 	0.041276
40.83 	0.041193 	4928 	0.041074
40.87 	0.048498 	4928 	0.047785
40.91 	0.047938 	4923 	0.046848
40.95 	0.043151 	4913 	0.042435
40.99 	0.048538 	4924 	0.048538
41.03 	0.041182 	4905 	0.040824
41.07 	0.054970 	4930 	0.053148
41.11 	0.041743 	4935 	0.041505
41.15 	0.049180 	4941 	0.048113
41.19 	0.047870 	4930 	0.047038
41.23 	0.049403 	4939 	0.049047
41.27 	0.045224 	4931 	0.044274
41.31 	0.048449 	4933 	0.047618
41.35 	0.044147 	4938 	0.043317
41.39 	0.047841 	4933 	0.047129
41.43 	0.048083 	4929 	0.047607
41.47 	0.042834 	4926 	0.042120
41.51 	0.050810 	4940 	0.049861
41.55 	0.046201 	4935 	0.045251
41.59 	0.042976 	4933 	0.042382
41.63 	0.046983 	4938 	0.046389
41.67 	0.043927 	4940 	0.043097
41.71 	0.042359 	4934 	0.042003
41.75 	0.037533 	4929 	0.036939
41.79 	0.044903 	4944 	0.044192
41.83 	0.045049 	4928 	0.044692
41.87 	0.044377 	4935 	0.043783
41.91 	0.045178 	4936 	0.044585
41.95 	0.042993 	4931 	0.042399
41.99 	0.037513 	4905 	0.036916
42.03 	0.044341 	4939 	0.043748
42.07 	0.047397 	4937 	0.046804
42.11 	0.049141 	4945 	0.047956
42.15 	0.047388 	4938 	0.046320
42.19 	0.044010 	4908 	0.043174
42.23 	0.045585 	4892 	0.044866
42.27 	0.040419 	4874 	0.039457
42.31 	0.041813 	4855 	0.040968
42.35 	0.044233 	4838 	0.043628
42.39 	0.047044 	4804 	0.046556
42.43 	0.045284 	4792 	0.044428
42.47 	0.046380 	4765 	0.045642
42.51 	0.039005 	4743 	0.038511
42.55 	0.045455 	4708 	0.044832
42.59 	0.047790 	4729 	0.047666
42.63 	0.042260 	4709 	0.042011
42.67 	0.043339 	4684 	0.043089
42.71 	0.040746 	4663 	0.040495
42.75 	0.048733 	4617 	0.048225
42.79 	0.042776 	4582 	0.042648
42.83 	0.037698 	4536 	0.037161
42.87 	0.040231 	4499 	0.039841
42.91 	0.042864 	4456 	0.042469
42.95 	0.044611 	4416 	0.043240
42.99 	0.047206 	4385 	0.046806
43.03 	0.043388 	4333 	0.042982
43.07 	0.041201 	4296 	0.040928
43.11 	0.037133 	4255 	0.036720
43.15 	0.039705 	4206 	0.039427
43.19 	0.046018 	4194 	0.045320
43.23 	0.034906 	4154 	0.034906
43.27 	0.038490 	4105 	0.038204
43.31 	0.038980 	4079 	0.038693
43.35 	0.046131 	4032 	0.045840
43.39 	0.044978 	4002 	0.044392
43.43 	0.044697 	3960 	0.044253
43.47 	0.041316 	3921 	0.040868
43.51 	0.037658 	3877 	0.036903
43.55 	0.041835 	2964 	0.041638
43.59 	0.042383 	1746 	0.042047
43.63 	0.033966 	1001 	0.033966
43.67 	0.039841 	502 	0.038674
43.71 	0.037657 	239 	0.037657
43.75 	0.000000 	16 	0.000000

File: 25SC_s1_0009.004.dat
#F C:\frames\spec\25SC_s1_0009.004
#C title =s:9 frm:4 25SC_s1
#C wavelength =0.15406

#S 1  fr_average C:\frames\spec\25SC_s1_0009.004 C:\win32app\speccom\mask.axs chi 0 180 0 360 0.02
#C 2 theta =0.000000 to 180 deg
#C   q   =0.000000 to 81.568 nm^-1
#C  chi  =0.000000 to 360 deg
#C collumns:
#C  1 position (2theta or chi in degrees)
#C  2 average intensity (sum of all counts in the region divided with number of pixels)
#C  3 Number of pixels in region)
#C  4 error (sum of sqrt(intensity) for all pixels divided by number)
#N 4
#L TTh  Int  N_pix  Err
32.99 	0.098361 	61 	0.098361
33.03 	0.049605 	1391 	0.048341
33.07 	0.053171 	2050 	0.052313
33.11 	0.048081 	2579 	0.047399
33.15 	0.057019 	2999 	0.055847
33.19 	0.057151 	3342 	0.056450
33.23 	0.065853 	3523 	0.064523
33.27 	0.052617 	3630 	0.051972
33.31 	0.062842 	3660 	0.062041
33.35 	0.060368 	3694 	0.059417
33.39 	0.060070 	3729 	0.059441
33.43 	0.056102 	3761 	0.054830
33.47 	0.059505 	3798 	0.058580
33.51 	0.055832 	3815 	0.055372
33.55 	0.060630 	3843 	0.059868
33.59 	0.053093 	3880 	0.052489
33.63 	0.058433 	3919 	0.057686
33.67 	0.063227 	3954 	0.062190
33.71 	0.056101 	3975 	0.054897
33.75 	0.067517 	3999 	0.066345
33.79 	0.065083 	4041 	0.063923
33.83 	0.050864 	4050 	0.050141
33.87 	0.060326 	4111 	0.059329
33.91 	0.060497 	4149 	0.059649
33.95 	0.059077 	4181 	0.057956
33.99 	0.064524 	4200 	0.062688
34.03 	0.055372 	4244 	0.054682
34.07 	0.061387 	4268 	0.060564
34.11 	0.072060 	4302 	0.070426
34.15 	0.056107 	4331 	0.055431
34.19 	0.057084 	4362 	0.056144
34.23 	0.058047 	4393 	0.056692
34.27 	0.063320 	4422 	0.062260
34.31 	0.062360 	4458 	0.061309
34.35 	0.056423 	4484 	0.055378
34.39 	0.058641 	4502 	0.057990
34.43 	0.066314 	4539 	0.065024
34.47 	0.058145 	4592 	0.056997
34.51 	0.060139 	4606 	0.058740
34.55 	0.057075 	4643 	0.056571
34.59 	0.059679 	4675 	0.058802
34.63 	0.060085 	4710 	0.058966
34.67 	0.064121 	4741 	0.063009
34.71 	0.064834 	4766 	0.063974
34.75 	0.061772 	4808 	0.060534
34.79 	0.055348 	4824 	0.054984
34.83 	0.064171 	4862 	0.062966
34.87 	0.060189 	4868 	0.059086
34.91 	0.058378 	4882 	0.058018
34.95 	0.052965 	4890 	0.052486
34.99 	0.058812 	4897 	0.057496
35.03 	0.061501 	4943 	0.060435
35.07 	0.061538 	4940 	0.060570
35.11 	0.061047 	4947 	0.059863
35.15 	0.060563 	4937 	0.059970
35.19 	0.062525 	4942 	0.061340
35.23 	0.063498 	4945 	0.061347
35.27 	0.064066 	4948 	0.063238
35.31 	0.055950 	4933 	0.055356
35.35 	0.061514 	4942 	0.061158
35.39 	0.058443 	4945 	0.057377
35.43 	0.059396 	4933 	0.058208
35.47 	0.060231 	4931 	0.059518
35.51 	0.059480 	4926 	0.058886
35.55 	0.064510 	4945 	0.064036
35.59 	0.073003 	4945 	0.071226
35.63 	0.060692 	4943 	0.059013
35.67 	0.057467 	4942 	0.056518
35.71 	0.065627 	4937 	0.064084
35.75 	0.061245 	4931 	0.060295
35.79 	0.067721 	4932 	0.066415
35.83 	0.056005 	4946 	0.055176
35.87 	0.061548 	4923 	0.060100
35.91 	0.052162 	4927 	0.051448
35.95 	0.066097 	4917 	0.064291
35.99 	0.065600 	4939 	0.064533
36.03 	0.061703 	4943 	0.060736
36.07 	0.054667 	4939 	0.053362
36.11 	0.058227 	4929 	0.056682
36.15 	0.058311 	4939 	0.057837
36.19 	0.059514 	4940 	0.058566
36.23 	0.060385 	4935 	0.059554
36.27 	0.066802 	4925 	0.065732
36.31 	0.066356 	4928 	0.064691
36.35 	0.052749 	4929 	0.051541
36.39 	0.057712 	4921 	0.056760
36.43 	0.068791 	4928 	0.067126
36.47 	0.059765 	4936 	0.058578
36.51 	0.058788 	4933 	0.057937
36.55 	0.064948 	4927 	0.063878
36.59 	0.058716 	4939 	0.057649
36.63 	0.050497 	4931 	0.049665
36.67 	0.058012 	4930 	0.056943
36.71 	0.049177 	4921 	0.048463
36.75 	0.056028 	4944 	0.055317
36.79 	0.064621 	4921 	0.063193
36.83 	0.055544 	4915 	0.054829
36.87 	0.058455 	4944 	0.058336
36.91 	0.063752 	4941 	0.062804
36.95 	0.057774 	4933 	0.057062
36.99 	0.049240 	4935 	0.048884
37.03 	0.056052 	4924 	0.054862
37.07 	0.053293 	4935 	0.052581
37.11 	0.055724 	4935 	0.054993
37.15 	0.050519 	4909 	0.049784
37.19 	0.059492 	4925 	0.058303
37.23 	0.052460 	4918 	0.051746
37.27 	0.064160 	4894 	0.063063
37.31 	0.054914 	4935 	0.053945
37.35 	0.051033 	4938 	0.050084
37.39 	0.055567 	4931 	0.054498
37.43 	0.060219 	4932 	0.059269
37.47 	0.052952 	4929 	0.051982
37.51 	0.062639 	4933 	0.061432
37.55 	0.056592 	4930 	0.056117
37.59 	0.054730 	4915 	0.053161
37.63 	0.058142 	4919 	0.057546
37.67 	0.054445 	4904 	0.053012
37.71 	0.052546 	4929 	0.051595
37.75 	0.050607 	4940 	0.049659
37.79 	0.056998 	4930 	0.055810
37.83 	0.051626 	4920 	0.050793
37.87 	0.055679 	4939 	0.053743
37.91 	0.054361 	4930 	0.053529
37.95 	0.058525 	4921 	0.057572
37.99 	0.057410 	4912 	0.056576
38.03 	0.059279 	4909 	0.058563
38.07 	0.061927 	4909 	0.060972
38.11 	0.061601 	4935 	0.060889
38.15 	0.057340 	4918 	0.056507
38.19 	0.058012 	4930 	0.056468
38.23 	0.061968 	4938 	0.061019
38.27 	0.067546 	4930 	0.065605
38.31 	0.070022 	4927 	0.068596
38.35 	0.060268 	4928 	0.058723
38.39 	0.065798 	4909 	0.064724
38.43 	0.071806 	4916 	0.070714
38.47 	0.070715 	4907 	0.069283
38.51 	0.062044 	4932 	0.061331
38.55 	0.070300 	4936 	0.068638
38.59 	0.062957 	4924 	0.061886
38.63 	0.060317 	4924 	0.059841
38.67 	0.062994 	4937 	0.062045
38.71 	0.049553 	4924 	0.049196
38.75 	0.058250 	4927 	0.056943
38.79 	0.055128 	4934 	0.053940
38.83 	0.048994 	4919 	0.048279
38.87 	0.052535 	4911 	0.051939
38.91 	0.055068 	4903 	0.053874
38.95 	0.049817 	4918 	0.048983
38.99 	0.059348 	4937 	0.058636
39.03 	0.056546 	4934 	0.056190
39.07 	0.061738 	4924 	0.060549
39.11 	0.054350 	4931 	0.053875
39.15 	0.058393 	4915 	0.057678
39.19 	0.057962 	4917 	0.056771
39.23 	0.047716 	4925 	0.047121
39.27 	0.061303 	4910 	0.060230
39.31 	0.051392 	4884 	0.050193
39.35 	0.056130 	4935 	0.055279
39.39 	0.058024 	4929 	0.056835
39.43 	0.057977 	4933 	0.057502
39.47 	0.056673 	4923 	0.056078
39.51 	0.054833 	4924 	0.053882
39.55 	0.053669 	4919 	0.053193
39.59 	0.052728 	4912 	0.051774
39.63 	0.056481 	4922 	0.055767
39.67 	0.062487 	4913 	0.061295
39.71 	0.056588 	4895 	0.055511
39.75 	0.061080 	4928 	0.060010
39.79 	0.057653 	4926 	0.055988
39.83 	0.053709 	4934 	0.052403
39.87 	0.053401 	4925 	0.052687
39.91 	0.055262 	4922 	0.054290
39.95 	0.051679 	4915 	0.050725
39.99 	0.058597 	4932 	0.057647
40.03 	0.053774 	4928 	0.052942
40.07 	0.055454 	4923 	0.054621
40.11 	0.060415 	4916 	0.059581
40.15 	0.054142 	4913 	0.053546
40.19 	0.048489 	4929 	0.047657
40.23 	0.054745 	4932 	0.054032
40.27 	0.051043 	4937 	0.050094
40.31 	0.063373 	4939 	0.062424
40.35 	0.052246 	4919 	0.051770
40.39 	0.049888 	4931 	0.049294
40.43 	0.049980 	4922 	0.049028
40.47 	0.053680 	4918 	0.052847
40.51 	0.058310 	4922 	0.057715
40.55 	0.053382 	4908 	0.053024
40.59 	0.055702 	4937 	0.054753
40.63 	0.053144 	4930 	0.052550
40.67 	0.051095 	4932 	0.050026
40.71 	0.051500 	4932 	0.051025
40.75 	0.051511 	4931 	0.050679
40.79 	0.056052 	4924 	0.055219
40.83 	0.054586 	4928 	0.053635
40.87 	0.054180 	4928 	0.053110
40.91 	0.051391 	4923 	0.050440
40.95 	0.053735 	4913 	0.053139
40.99 	0.056052 	4924 	0.054862
41.03 	0.053007 	4905 	0.051693
41.07 	0.049899 	4930 	0.048829
41.11 	0.057751 	4935 	0.057039
41.15 	0.046549 	4941 	0.046194
41.19 	0.044828 	4930 	0.044115
41.23 	0.055274 	4939 	0.053713
41.27 	0.053133 	4931 	0.052064
41.31 	0.055139 	4933 	0.054051
41.35 	0.054678 	4938 	0.054322
41.39 	0.051490 	4933 	0.050421
41.43 	0.054575 	4929 	0.053505
41.47 	0.050345 	4926 	0.049493
41.51 	0.053846 	4940 	0.053135
41.55 	0.052685 	4935 	0.051379
41.59 	0.053720 	4933 	0.052651
41.63 	0.053463 	4938 	0.052158
41.67 	0.048988 	4940 	0.048395
41.71 	0.052088 	4934 	0.051731
41.75 	0.052343 	4929 	0.051393
41.79 	0.049150 	4944 	0.048203
41.83 	0.047484 	4928 	0.046889
41.87 	0.049443 	4935 	0.048374
41.91 	0.048015 	4936 	0.047659
41.95 	0.049483 	4931 	0.048889
41.99 	0.052396 	4905 	0.051798
42.03 	0.053250 	4939 	0.051826
42.07 	0.048815 	4937 	0.048222
42.11 	0.043680 	4945 	0.043562
42.15 	0.048603 	4938 	0.048365
42.19 	0.042584 	4908 	0.042225
42.23 	0.054579 	4892 	0.054100
42.27 	0.052113 	4874 	0.051272
42.31 	0.055201 	4855 	0.054356
42.35 	0.043613 	4838 	0.042887
42.39 	0.055371 	4804 	0.054273
42.43 	0.045492 	4792 	0.044881
42.47 	0.056034 	4765 	0.055542
42.51 	0.047227 	4743 	0.046466
42.55 	0.045030 	4708 	0.044532
42.59 	0.046099 	4729 	0.046099
42.63 	0.048418 	4709 	0.047547
42.67 	0.050811 	4684 	0.050311
42.71 	0.050611 	4663 	0.050109
42.75 	0.046350 	4617 	0.045082
42.79 	0.050415 	4582 	0.050031
42.83 	0.052690 	4536 	0.052044
42.87 	0.048455 	4499 	0.047804
42.91 	0.050045 	4456 	0.049256
42.95 	0.047328 	4416 	0.046797
42.99 	0.046750 	4385 	0.046216
43.03 	0.043388 	4333 	0.043118
43.07 	0.044693 	4296 	0.044147
43.11 	0.048649 	4255 	0.048236
43.15 	0.047551 	4206 	0.046715
43.19 	0.052694 	4194 	0.051856
43.23 	0.043091 	4154 	0.042809
43.27 	0.053350 	4105 	0.053207
43.31 	0.045599 	4079 	0.045456
43.35 	0.051835 	4032 	0.051399
43.39 	0.043228 	4002 	0.042497
43.43 	0.048232 	3960 	0.047641
43.47 	0.050242 	3921 	0.049645
43.51 	0.046428 	3877 	0.045823
43.55 	0.042173 	2964 	0.041580
43.59 	0.049255 	1746 	0.049255
43.63 	0.050949 	1001 	0.049779
43.67 	0.043825 	502 	0.043825
43.71 	0.058577 	239 	0.058577
43.75 	0.062500 	16 	0.062500