Folder: Bessy-II-KMC-II-insitu-sin2psi/Example_Data (part 116)

File: 25SC_s1_0046.004.dat
#F C:\frames\spec\25SC_s1_0046.004
#C title =s:46 frm:4 25SC_s1
#C wavelength =0.15406

#S 1  fr_average C:\frames\spec\25SC_s1_0046.004 C:\win32app\speccom\mask.axs chi 0 180 0 360 0.02
#C 2 theta =0.000000 to 180 deg
#C   q   =0.000000 to 81.568 nm^-1
#C  chi  =0.000000 to 360 deg
#C collumns:
#C  1 position (2theta or chi in degrees)
#C  2 average intensity (sum of all counts in the region divided with number of pixels)
#C  3 Number of pixels in region)
#C  4 error (sum of sqrt(intensity) for all pixels divided by number)
#N 4
#L TTh  Int  N_pix  Err
32.99 	0.098361 	61 	0.098361
33.03 	0.068296 	1391 	0.068296
33.07 	0.061463 	2050 	0.059463
33.11 	0.053121 	2579 	0.052440
33.15 	0.058686 	2999 	0.056733
33.19 	0.049072 	3342 	0.048371
33.23 	0.053931 	3523 	0.053432
33.27 	0.061433 	3630 	0.060626
33.31 	0.051366 	3660 	0.050726
33.35 	0.058744 	3694 	0.057608
33.39 	0.054975 	3729 	0.054032
33.43 	0.053709 	3761 	0.053242
33.47 	0.056609 	3798 	0.055349
33.51 	0.055570 	3815 	0.054777
33.55 	0.057247 	3843 	0.056637
33.59 	0.061598 	3880 	0.059912
33.63 	0.061750 	3919 	0.060555
33.67 	0.062974 	3954 	0.061320
33.71 	0.066415 	3975 	0.065384
33.75 	0.062016 	3999 	0.061113
33.79 	0.059391 	4041 	0.058087
33.83 	0.063457 	4050 	0.062300
33.87 	0.058137 	4111 	0.056973
33.91 	0.058809 	4149 	0.057633
33.95 	0.060273 	4181 	0.059409
33.99 	0.059524 	4200 	0.058408
34.03 	0.060320 	4244 	0.059768
34.07 	0.061856 	4268 	0.061032
34.11 	0.059275 	4302 	0.058185
34.15 	0.056107 	4331 	0.055566
34.19 	0.057313 	4362 	0.056373
34.23 	0.055543 	4393 	0.054476
34.27 	0.065581 	4422 	0.063992
34.31 	0.058098 	4458 	0.056652
34.35 	0.056200 	4484 	0.054872
34.39 	0.058641 	4502 	0.057448
34.43 	0.055299 	4539 	0.054911
34.47 	0.054878 	4592 	0.054240
34.51 	0.051238 	4606 	0.050199
34.55 	0.055137 	4643 	0.054254
34.59 	0.053904 	4675 	0.052380
34.63 	0.054352 	4710 	0.052984
34.67 	0.062012 	4741 	0.061024
34.71 	0.058749 	4766 	0.057766
34.75 	0.058236 	4808 	0.056754
34.79 	0.057836 	4824 	0.057229
34.83 	0.056767 	4862 	0.056044
34.87 	0.058135 	4868 	0.057052
34.91 	0.054281 	4882 	0.052961
34.95 	0.061759 	4890 	0.060201
34.99 	0.064121 	4897 	0.063164
35.03 	0.059276 	4943 	0.058091
35.07 	0.056275 	4940 	0.055327
35.11 	0.057206 	4947 	0.055884
35.15 	0.061981 	4937 	0.060557
35.19 	0.060097 	4942 	0.059366
35.23 	0.062487 	4945 	0.061658
35.27 	0.061843 	4948 	0.060541
35.31 	0.058585 	4933 	0.057754
35.35 	0.057264 	4942 	0.056197
35.39 	0.060061 	4945 	0.059113
35.43 	0.058180 	4933 	0.056379
35.47 	0.051714 	4931 	0.051120
35.51 	0.064352 	4926 	0.062906
35.55 	0.055814 	4945 	0.054629
35.59 	0.064105 	4945 	0.062921
35.63 	0.056646 	4943 	0.055579
35.67 	0.057264 	4942 	0.055842
35.71 	0.057930 	4937 	0.057099
35.75 	0.064287 	4931 	0.062743
35.79 	0.059205 	4932 	0.057899
35.83 	0.053781 	4946 	0.053426
35.87 	0.056063 	4923 	0.055349
35.91 	0.056424 	4927 	0.055473
35.95 	0.052064 	4917 	0.051211
35.99 	0.055882 	4939 	0.055052
36.03 	0.056241 	4943 	0.055293
36.07 	0.057299 	4939 	0.055856
36.11 	0.063096 	4929 	0.061551
36.15 	0.056084 	4939 	0.054187
36.19 	0.056883 	4940 	0.056053
36.23 	0.058156 	4935 	0.057662
36.27 	0.052386 	4925 	0.051553
36.31 	0.060268 	4928 	0.059297
36.35 	0.055792 	4929 	0.054584
36.39 	0.055273 	4921 	0.054440
36.43 	0.059862 	4928 	0.058416
36.47 	0.057942 	4936 	0.056755
36.51 	0.065680 	4933 	0.064730
36.55 	0.057845 	4927 	0.056774
36.59 	0.057906 	4939 	0.057432
36.63 	0.059420 	4931 	0.058232
36.67 	0.050913 	4930 	0.049725
36.71 	0.062589 	4921 	0.061756
36.75 	0.057039 	4944 	0.056209
36.79 	0.065840 	4921 	0.064769
36.83 	0.055951 	4915 	0.055236
36.87 	0.054409 	4944 	0.053817
36.91 	0.052014 	4941 	0.051302
36.95 	0.052098 	4933 	0.051267
36.99 	0.054509 	4935 	0.053539
37.03 	0.059301 	4924 	0.058469
37.07 	0.051874 	4935 	0.050806
37.11 	0.060790 	4935 	0.059128
37.15 	0.058260 	4909 	0.057167
37.19 	0.055635 	4925 	0.054921
37.23 	0.050834 	4918 	0.050119
37.27 	0.059256 	4894 	0.058418
37.31 	0.059980 	4935 	0.059149
37.35 	0.059741 	4938 	0.058535
37.39 	0.053133 	4931 	0.052420
37.43 	0.055150 	4932 	0.054299
37.47 	0.057415 	4929 	0.056108
37.51 	0.052706 	4933 	0.052469
37.55 	0.055781 	4930 	0.054474
37.59 	0.055748 	4915 	0.054437
37.63 	0.056922 	4919 	0.056069
37.67 	0.056281 	4904 	0.055564
37.71 	0.058227 	4929 	0.056920
37.75 	0.046559 	4940 	0.045729
37.79 	0.057201 	4930 	0.056468
37.83 	0.061789 	4920 	0.059944
37.87 	0.059526 	4939 	0.058577
37.91 	0.055781 	4930 	0.054830
37.95 	0.052835 	4921 	0.051763
37.99 	0.057614 	4912 	0.055925
38.03 	0.051742 	4909 	0.050906
38.07 	0.063760 	4909 	0.062328
38.11 	0.057751 	4935 	0.056682
38.15 	0.057950 	4918 	0.057236
38.19 	0.057606 	4930 	0.056775
38.23 	0.062778 	4938 	0.062541
38.27 	0.054564 	4930 	0.053376
38.31 	0.065354 	4927 	0.064522
38.35 	0.059050 	4928 	0.058337
38.39 	0.065594 	4909 	0.064639
38.43 	0.058584 	4916 	0.057512
38.47 	0.063379 	4907 	0.062304
38.51 	0.067721 	4932 	0.066177
38.55 	0.066653 	4936 	0.065348
38.59 	0.065394 	4924 	0.063947
38.63 	0.070268 	4924 	0.068484
38.67 	0.068868 	4937 	0.067286
38.71 	0.065191 	4924 	0.064001
38.75 	0.060686 	4927 	0.059735
38.79 	0.060600 	4934 	0.059749
38.83 	0.058752 	4919 	0.057680
38.87 	0.050703 	4911 	0.049371
38.91 	0.055884 	4903 	0.055048
38.95 	0.057137 	4918 	0.056403
38.99 	0.054284 	4937 	0.052979
39.03 	0.052088 	4934 	0.051375
39.07 	0.055443 	4924 	0.053896
39.11 	0.053539 	4931 	0.052588
39.15 	0.057172 	4915 	0.056099
39.19 	0.049217 	4917 	0.048264
39.23 	0.050964 	4925 	0.050370
39.27 	0.049491 	4910 	0.048775
39.31 	0.055487 	4884 	0.055008
39.35 	0.053698 	4935 	0.052155
39.39 	0.057010 	4929 	0.056059
39.43 	0.050274 	4933 	0.049561
39.47 	0.055454 	4923 	0.054839
39.51 	0.049553 	4924 	0.049077
39.55 	0.053466 	4919 	0.052037
39.59 	0.049878 	4912 	0.049043
39.63 	0.057903 	4922 	0.056713
39.67 	0.059027 	4913 	0.057835
39.71 	0.061287 	4895 	0.059333
39.75 	0.061891 	4928 	0.060703
39.79 	0.058059 	4926 	0.057465
39.83 	0.056546 	4934 	0.055597
39.87 	0.059086 	4925 	0.058115
39.91 	0.057903 	4922 	0.057189
39.95 	0.058800 	4915 	0.057608
39.99 	0.059408 	4932 	0.058933
40.03 	0.052354 	4928 	0.051641
40.07 	0.047532 	4923 	0.046342
40.11 	0.053092 	4916 	0.052020
40.15 	0.053939 	4913 	0.052727
40.19 	0.050314 	4929 	0.049364
40.23 	0.049067 	4932 	0.048473
40.27 	0.051448 	4937 	0.050855
40.31 	0.051427 	4939 	0.050123
40.35 	0.046757 	4919 	0.046162
40.39 	0.051105 	4931 	0.050749
40.43 	0.051605 	4922 	0.050891
40.47 	0.049817 	4918 	0.048507
40.51 	0.052011 	4922 	0.051059
40.55 	0.056438 	4908 	0.055484
40.59 	0.052866 	4937 	0.052154
40.63 	0.060446 	4930 	0.059377
40.67 	0.046634 	4932 	0.045308
40.71 	0.052109 	4932 	0.051377
40.75 	0.051105 	4931 	0.050036
40.79 	0.056052 	4924 	0.055576
40.83 	0.053369 	4928 	0.052655
40.87 	0.050325 	4928 	0.049374
40.91 	0.049766 	4923 	0.049290
40.95 	0.054346 	4913 	0.053749
40.99 	0.045898 	4924 	0.045422
41.03 	0.047095 	4905 	0.046120
41.07 	0.048479 	4930 	0.047528
41.11 	0.047214 	4935 	0.046264
41.15 	0.050597 	4941 	0.050241
41.19 	0.058215 	4930 	0.057264
41.23 	0.050415 	4939 	0.049585
41.27 	0.050902 	4931 	0.049933
41.31 	0.050882 	4933 	0.050051
41.35 	0.055083 	4938 	0.054253
41.39 	0.053112 	4933 	0.052518
41.43 	0.055386 	4929 	0.054317
41.47 	0.052172 	4926 	0.051340
41.51 	0.046154 	4940 	0.045205
41.55 	0.046809 	4935 	0.046096
41.59 	0.046219 	4933 	0.045626
41.63 	0.049210 	4938 	0.048736
41.67 	0.046761 	4940 	0.045931
41.71 	0.052088 	4934 	0.051494
41.75 	0.049503 	4929 	0.048057
41.79 	0.049353 	4944 	0.048385
41.83 	0.051745 	4928 	0.051389
41.87 	0.051874 	4935 	0.051162
41.91 	0.049635 	4936 	0.048805
41.95 	0.044413 	4931 	0.044057
41.99 	0.047095 	4905 	0.046737
42.03 	0.048390 	4939 	0.047442
42.07 	0.049220 	4937 	0.048271
42.11 	0.047725 	4945 	0.047133
42.15 	0.040300 	4938 	0.039825
42.19 	0.051752 	4908 	0.051752
42.23 	0.049877 	4892 	0.048800
42.27 	0.046984 	4874 	0.045422
42.31 	0.045520 	4855 	0.045158
42.35 	0.046920 	4838 	0.045830
42.39 	0.044130 	4804 	0.043032
42.43 	0.042571 	4792 	0.042204
42.47 	0.044911 	4765 	0.044296
42.51 	0.042800 	4743 	0.042676
42.55 	0.049703 	4708 	0.049329
42.59 	0.046310 	4729 	0.045815
42.63 	0.045870 	4709 	0.045745
42.67 	0.057216 	4684 	0.056341
42.71 	0.036028 	4663 	0.035526
42.75 	0.047650 	4617 	0.047142
42.79 	0.046704 	4582 	0.046065
42.83 	0.044753 	4536 	0.044237
42.87 	0.046455 	4499 	0.045934
42.91 	0.040171 	4456 	0.039908
42.95 	0.046196 	4416 	0.045532
42.99 	0.046522 	4385 	0.045854
43.03 	0.045696 	4333 	0.045425
43.07 	0.048650 	4296 	0.047809
43.11 	0.040893 	4255 	0.040067
43.15 	0.048978 	4206 	0.048560
43.19 	0.041726 	4194 	0.040888
43.23 	0.044535 	4154 	0.043830
43.27 	0.045067 	4105 	0.044639
43.31 	0.048786 	4079 	0.048356
43.35 	0.043899 	4032 	0.043172
43.39 	0.042979 	4002 	0.041954
43.43 	0.043939 	3960 	0.042756
43.47 	0.046417 	3921 	0.045819
43.51 	0.050297 	3877 	0.049541
43.55 	0.049595 	2964 	0.048805
43.59 	0.038373 	1746 	0.038373
43.63 	0.045954 	1001 	0.045954
43.67 	0.045817 	502 	0.045817
43.71 	0.037657 	239 	0.037657
43.75 	0.000000 	16 	0.000000

File: 25SC_s1_0047.000.dat
#F C:\frames\spec\25SC_s1_0047.000
#C title =s:47 frm:0 25SC_s1
#C wavelength =0.15406

#S 1  fr_average C:\frames\spec\25SC_s1_0047.000 C:\win32app\speccom\mask.axs chi 0 180 0 360 0.02
#C 2 theta =0.000000 to 180 deg
#C   q   =0.000000 to 81.568 nm^-1
#C  chi  =0.000000 to 360 deg
#C collumns:
#C  1 position (2theta or chi in degrees)
#C  2 average intensity (sum of all counts in the region divided with number of pixels)
#C  3 Number of pixels in region)
#C  4 error (sum of sqrt(intensity) for all pixels divided by number)
#N 4
#L TTh  Int  N_pix  Err
32.99 	0.065574 	61 	0.065574
33.03 	0.070453 	1391 	0.068699
33.07 	0.057561 	2050 	0.056989
33.11 	0.063978 	2579 	0.062388
33.15 	0.054685 	2999 	0.053481
33.19 	0.064931 	3342 	0.063529
33.23 	0.061595 	3523 	0.059932
33.27 	0.065565 	3630 	0.064112
33.31 	0.063934 	3660 	0.063134
33.35 	0.063887 	3694 	0.062619
33.39 	0.056047 	3729 	0.054476
33.43 	0.061952 	3761 	0.060524
33.47 	0.064771 	3798 	0.063537
33.51 	0.050852 	3815 	0.050238
33.55 	0.056987 	3843 	0.056072
33.59 	0.061340 	3880 	0.060283
33.63 	0.060985 	3919 	0.060088
33.67 	0.054122 	3954 	0.052937
33.71 	0.061132 	3975 	0.059511
33.75 	0.064766 	3999 	0.063570
33.79 	0.050235 	4041 	0.049510
33.83 	0.053827 	4050 	0.053249
33.87 	0.057893 	4111 	0.056896
33.91 	0.057604 	4149 	0.056898
33.95 	0.059794 	4181 	0.058931
33.99 	0.064524 	4200 	0.063246
34.03 	0.050895 	4244 	0.050067
34.07 	0.059278 	4268 	0.058021
34.11 	0.054393 	4302 	0.053168
34.15 	0.061418 	4331 	0.060449
34.19 	0.052499 	4362 	0.051962
34.23 	0.061689 	4393 	0.060889
34.27 	0.062189 	4422 	0.061129
34.31 	0.061014 	4458 	0.060357
34.35 	0.057315 	4484 	0.056531
34.39 	0.055753 	4502 	0.054842
34.43 	0.055299 	4539 	0.054395
34.47 	0.063371 	4592 	0.062861
34.51 	0.054711 	4606 	0.053948
34.55 	0.053844 	4643 	0.052961
34.59 	0.060535 	4675 	0.059658
34.63 	0.050106 	4710 	0.049857
34.67 	0.059059 	4741 	0.057947
34.71 	0.057281 	4766 	0.056543
34.75 	0.059484 	4808 	0.058611
34.79 	0.061982 	4824 	0.060646
34.83 	0.054093 	4862 	0.053611
34.87 	0.057724 	4868 	0.056882
34.91 	0.056944 	4882 	0.056104
34.95 	0.056851 	4890 	0.055174
34.99 	0.057586 	4897 	0.057108
35.03 	0.057657 	4943 	0.056709
35.07 	0.062348 	4940 	0.061162
35.11 	0.059026 	4947 	0.058434
35.15 	0.057120 	4937 	0.055933
35.19 	0.057467 	4942 	0.056755
35.23 	0.055410 	4945 	0.054580
35.27 	0.061641 	4948 	0.060694
35.31 	0.058788 	4933 	0.057838
35.35 	0.056860 	4942 	0.055911
35.39 	0.060465 	4945 	0.059636
35.43 	0.057774 	4933 	0.057299
35.47 	0.054147 	4931 	0.053316
35.51 	0.056029 	4926 	0.055435
35.55 	0.053185 	4945 	0.052593
35.59 	0.057432 	4945 	0.056484
35.63 	0.054825 	4943 	0.054232
35.67 	0.057264 	4942 	0.056197
35.71 	0.058943 	4937 	0.057756
35.75 	0.062462 	4931 	0.061393
35.79 	0.050284 	4932 	0.049452
35.83 	0.059644 	4946 	0.058934
35.87 	0.053626 	4923 	0.053150
35.91 	0.056830 	4927 	0.056354
35.95 	0.061013 	4917 	0.060060
35.99 	0.058716 	4939 	0.057392
36.03 	0.054218 	4943 	0.053389
36.07 	0.060539 	4939 	0.058977
36.11 	0.053561 	4929 	0.052729
36.15 	0.056894 	4939 	0.056538
36.19 	0.058300 	4940 	0.057825
36.23 	0.054509 	4935 	0.053915
36.27 	0.057462 	4925 	0.056372
36.31 	0.057021 	4928 	0.056427
36.35 	0.061270 	4929 	0.060200
36.39 	0.062589 	4921 	0.061279
36.43 	0.057427 	4928 	0.056714
36.47 	0.054498 	4936 	0.053667
36.51 	0.058585 	4933 	0.057873
36.55 	0.062716 	4927 	0.061408
36.59 	0.060741 	4939 	0.059792
36.63 	0.059826 	4931 	0.059232
36.67 	0.052333 	4930 	0.051739
36.71 	0.059744 	4921 	0.058792
36.75 	0.055623 	4944 	0.054912
36.79 	0.057102 	4921 	0.056150
36.83 	0.055544 	4915 	0.054472
36.87 	0.060275 	4944 	0.059071
36.91 	0.066383 	4941 	0.065316
36.95 	0.060612 	4933 	0.059425
36.99 	0.053090 	4935 	0.052615
37.03 	0.059911 	4924 	0.058721
37.07 	0.056738 	4935 	0.055788
37.11 	0.057345 	4935 	0.056752
37.15 	0.060705 	4909 	0.059989
37.19 	0.059695 	4925 	0.058387
37.23 	0.054494 	4918 	0.053402
37.27 	0.054965 	4894 	0.053988
37.31 	0.057345 	4935 	0.056515
37.35 	0.054070 	4938 	0.053003
37.39 	0.060637 	4931 	0.059805
37.43 	0.060016 	4932 	0.058809
37.47 	0.052546 	4929 	0.051358
37.51 	0.051490 	4933 	0.050520
37.55 	0.062677 	4930 	0.061113
37.59 	0.057782 	4915 	0.056590
37.63 	0.054889 	4919 	0.054056
37.67 	0.058524 	4904 	0.057399
37.71 	0.056807 	4929 	0.055737
37.75 	0.054251 	4940 	0.051860
37.79 	0.053753 	4930 	0.052802
37.83 	0.048577 	4920 	0.047982
37.87 	0.057299 	4939 	0.056232
37.91 	0.046856 	4930 	0.045787
37.95 	0.052022 	4921 	0.051665
37.99 	0.057207 	4912 	0.056491
38.03 	0.051334 	4909 	0.049883
38.07 	0.056223 	4909 	0.055388
38.11 	0.059980 	4935 	0.059268
38.15 	0.064864 	4918 	0.063534
38.19 	0.067546 	4930 	0.066595
38.23 	0.062981 	4938 	0.061439
38.27 	0.070791 	4930 	0.069484
38.31 	0.077126 	4927 	0.075442
38.35 	0.074675 	4928 	0.072892
38.39 	0.079446 	4909 	0.076821
38.43 	0.084825 	4916 	0.082919
38.47 	0.077644 	4907 	0.075595
38.51 	0.086375 	4932 	0.084593
38.55 	0.090762 	4936 	0.088250
38.59 	0.071690 	4924 	0.070024
38.63 	0.077579 	4924 	0.076271
38.67 	0.071298 	4937 	0.069637
38.71 	0.065394 	4924 	0.063847
38.75 	0.062513 	4927 	0.061918
38.79 	0.062221 	4934 	0.061272
38.83 	0.053060 	4919 	0.052583
38.87 	0.053350 	4911 	0.052515
38.91 	0.055884 	4903 	0.055048
38.95 	0.051850 	4918 	0.051374
38.99 	0.047397 	4937 	0.046923
39.03 	0.051074 	4934 	0.050006
39.07 	0.049756 	4924 	0.049043
39.11 	0.050902 	4931 	0.050665
39.15 	0.048830 	4915 	0.048353
39.19 	0.045556 	4917 	0.044722
39.23 	0.047310 	4925 	0.046239
39.27 	0.048473 	4910 	0.047091
39.31 	0.048116 	4884 	0.047756
39.35 	0.048024 	4935 	0.047312
39.39 	0.045648 	4929 	0.045173
39.43 	0.045003 	4933 	0.044884
39.47 	0.040016 	4923 	0.039897
39.51 	0.041227 	4924 	0.040989
39.55 	0.040659 	4919 	0.039944
39.59 	0.044788 	4912 	0.044073
39.63 	0.049370 	4922 	0.048894
39.67 	0.038469 	4913 	0.038350
39.71 	0.042697 	4895 	0.042218
39.75 	0.045252 	4928 	0.044657
39.79 	0.050954 	4926 	0.049884
39.83 	0.050263 	4934 	0.049432
39.87 	0.042437 	4925 	0.041723
39.91 	0.042869 	4922 	0.042512
39.95 	0.040692 	4915 	0.040096
39.99 	0.040552 	4932 	0.040433
40.03 	0.049310 	4928 	0.048597
40.07 	0.043063 	4923 	0.042825
40.11 	0.040887 	4916 	0.040649
40.15 	0.050071 	4913 	0.048879
40.19 	0.045648 	4929 	0.045292
40.23 	0.039335 	4932 	0.038622
40.27 	0.043144 	4937 	0.042432
40.31 	0.041304 	4939 	0.041067
40.35 	0.043911 	4919 	0.043435
40.39 	0.045224 	4931 	0.044155
40.43 	0.044291 	4922 	0.043934
40.47 	0.038634 	4918 	0.037800
40.51 	0.044494 	4922 	0.044256
40.55 	0.041157 	4908 	0.040799
40.59 	0.047195 	4937 	0.047076
40.63 	0.044828 	4930 	0.044233
40.67 	0.042985 	4932 	0.042747
40.71 	0.042174 	4932 	0.041936
40.75 	0.042385 	4931 	0.041435
40.79 	0.048335 	4924 	0.048097
40.83 	0.038758 	4928 	0.038639
40.87 	0.043425 	4928 	0.042831
40.91 	0.042251 	4923 	0.042013
40.95 	0.045593 	4913 	0.044520
40.99 	0.043461 	4924 	0.042866
41.03 	0.040979 	4905 	0.040501
41.07 	0.042191 	4930 	0.041339
41.11 	0.045998 	4935 	0.045523
41.15 	0.044525 	4941 	0.043775
41.19 	0.039554 	4930 	0.039078
41.23 	0.041506 	4939 	0.040795
41.27 	0.040154 	4931 	0.039679
41.31 	0.044800 	4933 	0.044207
41.35 	0.040097 	4938 	0.039741
41.39 	0.041354 	4933 	0.041117
41.43 	0.037736 	4929 	0.037260
41.47 	0.044458 	4926 	0.043982
41.51 	0.037449 	4940 	0.037331
41.55 	0.040729 	4935 	0.039899
41.59 	0.042368 	4933 	0.041536
41.63 	0.036452 	4938 	0.036096
41.67 	0.041700 	4940 	0.041345
41.71 	0.040130 	4934 	0.039774
41.75 	0.038547 	4929 	0.037815
41.79 	0.042678 	4944 	0.042204
41.83 	0.038555 	4928 	0.037961
41.87 	0.040729 	4935 	0.040373
41.91 	0.038290 	4936 	0.037578
41.95 	0.039140 	4931 	0.038665
41.99 	0.039959 	4905 	0.039123
42.03 	0.040089 	4939 	0.039022
42.07 	0.037270 	4937 	0.036914
42.11 	0.041860 	4945 	0.041268
42.15 	0.039490 	4938 	0.039371
42.19 	0.042584 	4908 	0.041390
42.23 	0.042314 	4892 	0.041955
42.27 	0.034058 	4874 	0.033698
42.31 	0.035427 	4855 	0.035307
42.35 	0.039066 	4838 	0.038339
42.39 	0.042465 	4804 	0.041733
42.43 	0.041945 	4792 	0.040967
42.47 	0.036936 	4765 	0.036567
42.51 	0.041535 	4743 	0.040917
42.55 	0.038233 	4708 	0.037611
42.59 	0.039120 	4729 	0.038749
42.63 	0.038225 	4709 	0.037851
42.67 	0.041631 	4684 	0.041110
42.71 	0.041604 	4663 	0.041102
42.75 	0.034005 	4617 	0.033497
42.79 	0.039721 	4582 	0.039465
42.83 	0.038139 	4536 	0.038010
42.87 	0.038675 	4499 	0.038415
42.91 	0.037926 	4456 	0.037401
42.95 	0.040987 	4416 	0.039926
42.99 	0.036944 	4385 	0.036543
43.03 	0.039695 	4333 	0.039560
43.07 	0.042365 	4296 	0.041956
43.11 	0.035723 	4255 	0.035447
43.15 	0.034475 	4206 	0.034196
43.19 	0.036004 	4194 	0.036004
43.23 	0.035628 	4154 	0.035064
43.27 	0.040682 	4105 	0.040111
43.31 	0.035548 	4079 	0.035117
43.35 	0.038442 	4032 	0.038152
43.39 	0.039480 	4002 	0.039334
43.43 	0.033838 	3960 	0.033543
43.47 	0.039786 	3921 	0.038740
43.51 	0.038432 	3877 	0.038130
43.55 	0.037787 	2964 	0.037589
43.59 	0.036655 	1746 	0.035649
43.63 	0.034965 	1001 	0.034965
43.67 	0.041833 	502 	0.040666
43.71 	0.016736 	239 	0.016736
43.75 	0.000000 	16 	0.000000