Folder: Bessy-II-KMC-II-insitu-sin2psi/Example_Data (part 119)

File: 25SC_s1_0048.000.dat
#F C:\frames\spec\25SC_s1_0048.000
#C title =s:48 frm:0 25SC_s1
#C wavelength =0.15406

#S 1  fr_average C:\frames\spec\25SC_s1_0048.000 C:\win32app\speccom\mask.axs chi 0 180 0 360 0.02
#C 2 theta =0.000000 to 180 deg
#C   q   =0.000000 to 81.568 nm^-1
#C  chi  =0.000000 to 360 deg
#C collumns:
#C  1 position (2theta or chi in degrees)
#C  2 average intensity (sum of all counts in the region divided with number of pixels)
#C  3 Number of pixels in region)
#C  4 error (sum of sqrt(intensity) for all pixels divided by number)
#N 4
#L TTh  Int  N_pix  Err
32.99 	0.065574 	61 	0.065574
33.03 	0.061107 	1391 	0.059844
33.07 	0.069756 	2050 	0.068899
33.11 	0.061264 	2579 	0.060583
33.15 	0.065355 	2999 	0.064574
33.19 	0.060443 	3342 	0.059216
33.23 	0.061879 	3523 	0.060854
33.27 	0.057300 	3630 	0.056493
33.31 	0.056831 	3660 	0.056190
33.35 	0.063346 	3694 	0.062395
33.39 	0.060874 	3729 	0.059932
33.43 	0.057697 	3761 	0.056451
33.47 	0.057399 	3798 	0.056627
33.51 	0.057667 	3815 	0.056746
33.55 	0.068957 	3843 	0.066950
33.59 	0.058763 	3880 	0.057555
33.63 	0.052054 	3919 	0.051755
33.67 	0.061457 	3954 	0.059679
33.71 	0.055597 	3975 	0.054247
33.75 	0.057764 	3999 	0.056568
33.79 	0.057659 	4041 	0.057079
33.83 	0.056543 	4050 	0.055675
33.87 	0.058380 	4111 	0.058237
33.91 	0.054230 	4149 	0.053100
33.95 	0.056207 	4181 	0.055366
33.99 	0.059048 	4200 	0.057653
34.03 	0.058200 	4244 	0.056958
34.07 	0.067479 	4268 	0.066655
34.11 	0.058113 	4302 	0.057432
34.15 	0.053106 	4331 	0.052565
34.19 	0.060064 	4362 	0.058453
34.23 	0.058047 	4393 	0.057247
34.27 	0.054726 	4422 	0.053534
34.31 	0.058995 	4458 	0.057681
34.35 	0.054416 	4484 	0.053349
34.39 	0.055753 	4502 	0.054409
34.43 	0.062789 	4539 	0.062015
34.47 	0.058362 	4592 	0.057597
34.51 	0.057099 	4606 	0.056209
34.55 	0.055998 	4643 	0.055620
34.59 	0.062032 	4675 	0.060654
34.63 	0.050743 	4710 	0.050743
34.67 	0.060747 	4741 	0.060005
34.71 	0.058959 	4766 	0.058345
34.75 	0.060732 	4808 	0.059372
34.79 	0.052861 	4824 	0.052132
34.83 	0.055738 	4862 	0.054534
34.87 	0.053410 	4868 	0.052207
34.91 	0.058787 	4882 	0.056988
34.95 	0.059305 	4890 	0.058466
34.99 	0.056361 	4897 	0.055165
35.03 	0.050779 	4943 	0.049712
35.07 	0.051619 	4940 	0.051027
35.11 	0.066909 	4947 	0.065844
35.15 	0.056512 	4937 	0.055800
35.19 	0.060704 	4942 	0.059519
35.23 	0.057634 	4945 	0.056449
35.27 	0.060833 	4948 	0.059886
35.31 	0.056152 	4933 	0.054727
35.35 	0.057669 	4942 	0.057076
35.39 	0.054196 	4945 	0.053111
35.43 	0.058788 	4933 	0.057838
35.47 	0.057595 	4931 	0.056526
35.51 	0.057450 	4926 	0.056360
35.55 	0.060667 	4945 	0.059364
35.59 	0.051972 	4945 	0.051024
35.63 	0.054623 	4943 	0.053793
35.67 	0.061716 	4942 	0.060274
35.71 	0.056917 	4937 	0.056087
35.75 	0.058203 	4931 	0.057609
35.79 	0.056975 	4932 	0.055787
35.83 	0.056005 	4946 	0.054801
35.87 	0.052610 	4923 	0.051896
35.91 	0.055612 	4927 	0.054522
35.95 	0.060606 	4917 	0.059415
35.99 	0.059324 	4939 	0.058612
36.03 	0.060085 	4943 	0.058189
36.07 	0.057299 	4939 	0.056943
36.11 	0.057618 	4929 	0.055954
36.15 	0.060741 	4939 	0.059792
36.19 	0.060931 	4940 	0.060220
36.23 	0.057345 	4935 	0.056396
36.27 	0.056853 	4925 	0.056258
36.31 	0.056818 	4928 	0.056224
36.35 	0.059444 	4929 	0.058256
36.39 	0.062386 	4921 	0.061552
36.43 	0.061282 	4928 	0.060213
36.47 	0.056524 	4936 	0.055693
36.51 	0.059599 	4933 	0.059005
36.55 	0.056830 	4927 	0.056235
36.59 	0.052642 	4939 	0.052049
36.63 	0.056175 	4931 	0.055462
36.67 	0.055781 	4930 	0.054593
36.71 	0.057712 	4921 	0.056383
36.75 	0.055016 	4944 	0.053594
36.79 	0.059338 	4921 	0.058366
36.83 	0.061445 	4915 	0.060352
36.87 	0.065939 	4944 	0.064280
36.91 	0.059097 	4941 	0.058149
36.95 	0.061829 	4933 	0.059810
36.99 	0.062411 	4935 	0.060631
37.03 	0.061738 	4924 	0.061263
37.07 	0.051469 	4935 	0.050994
37.11 	0.055724 	4935 	0.055111
37.15 	0.062946 	4909 	0.061633
37.19 	0.056447 	4925 	0.055733
37.23 	0.057747 	4918 	0.056794
37.27 	0.062526 	4894 	0.061688
37.31 	0.057548 	4935 	0.056480
37.35 	0.054273 	4938 	0.053680
37.39 	0.059826 	4931 	0.058756
37.43 	0.053933 	4932 	0.053201
37.47 	0.060459 	4929 	0.059389
37.51 	0.059599 	4933 	0.059005
37.55 	0.055375 	4930 	0.054306
37.59 	0.058800 	4915 	0.057727
37.63 	0.059362 	4919 	0.058647
37.67 	0.055669 	4904 	0.055072
37.71 	0.055386 	4929 	0.054079
37.75 	0.054251 	4940 	0.053164
37.79 	0.058621 	4930 	0.057551
37.83 	0.058130 	4920 	0.056939
37.87 	0.057299 	4939 	0.056469
37.91 	0.053955 	4930 	0.053124
37.95 	0.056899 	4921 	0.056185
37.99 	0.054764 	4912 	0.053571
38.03 	0.050519 	4909 	0.050042
38.07 	0.056223 	4909 	0.055149
38.11 	0.064843 	4935 	0.063537
38.15 	0.056324 	4918 	0.055609
38.19 	0.057404 	4930 	0.056572
38.23 	0.069866 	4938 	0.067593
38.27 	0.067546 	4930 	0.066239
38.31 	0.073879 	4927 	0.072452
38.35 	0.076907 	4928 	0.075461
38.39 	0.085965 	4909 	0.082803
38.43 	0.077095 	4916 	0.074901
38.47 	0.083147 	4907 	0.081356
38.51 	0.080697 	4932 	0.078896
38.55 	0.088533 	4936 	0.086378
38.59 	0.071893 	4924 	0.070346
38.63 	0.072908 	4924 	0.071719
38.67 	0.070893 	4937 	0.069707
38.71 	0.063160 	4924 	0.061732
38.75 	0.058453 	4927 	0.056670
38.79 	0.059587 	4934 	0.058755
38.83 	0.046757 	4919 	0.045666
38.87 	0.047241 	4911 	0.046764
38.91 	0.047114 	4903 	0.046756
38.95 	0.045750 	4918 	0.045036
38.99 	0.054487 	4937 	0.054012
39.03 	0.047021 	4934 	0.046546
39.07 	0.049350 	4924 	0.048279
39.11 	0.047252 	4931 	0.046658
39.15 	0.053306 	4915 	0.052949
39.19 	0.052268 	4917 	0.051553
39.23 	0.049137 	4925 	0.048661
39.27 	0.048473 	4910 	0.048115
39.31 	0.045045 	4884 	0.044925
39.35 	0.046809 	4935 	0.046334
39.39 	0.050112 	4929 	0.049399
39.43 	0.040746 	4933 	0.040746
39.47 	0.042454 	4923 	0.042335
39.51 	0.049147 	4924 	0.048790
39.55 	0.046757 	4919 	0.045924
39.59 	0.046010 	4912 	0.045533
39.63 	0.042056 	4922 	0.041818
39.67 	0.041522 	4913 	0.040926
39.71 	0.050255 	4895 	0.049418
39.75 	0.044237 	4928 	0.043524
39.79 	0.045676 	4926 	0.044963
39.83 	0.047629 	4934 	0.046441
39.87 	0.042640 	4925 	0.041926
39.91 	0.044900 	4922 	0.044424
39.95 	0.044354 	4915 	0.043758
39.99 	0.046837 	4932 	0.045986
40.03 	0.044440 	4928 	0.043846
40.07 	0.042048 	4923 	0.040977
40.11 	0.041090 	4916 	0.039998
40.15 	0.045390 	4913 	0.044794
40.19 	0.044431 	4929 	0.043956
40.23 	0.043593 	4932 	0.042880
40.27 	0.038890 	4937 	0.038534
40.31 	0.039482 	4939 	0.038889
40.35 	0.046961 	4919 	0.046008
40.39 	0.043399 	4931 	0.042567
40.43 	0.038805 	4922 	0.038210
40.47 	0.047580 	4918 	0.046985
40.51 	0.045104 	4922 	0.044509
40.55 	0.036064 	4908 	0.035825
40.59 	0.041523 	4937 	0.041049
40.63 	0.041785 	4930 	0.040716
40.67 	0.042579 	4932 	0.041985
40.71 	0.045012 	4932 	0.044300
40.75 	0.035693 	4931 	0.035574
40.79 	0.043664 	4924 	0.043188
40.83 	0.036932 	4928 	0.036456
40.87 	0.041396 	4928 	0.040683
40.91 	0.050579 	4923 	0.049746
40.95 	0.042744 	4913 	0.042028
40.99 	0.042039 	4924 	0.041920
41.03 	0.041590 	4905 	0.040635
41.07 	0.045233 	4930 	0.044639
41.11 	0.037893 	4935 	0.037299
41.15 	0.038859 	4941 	0.038266
41.19 	0.043002 	4930 	0.042289
41.23 	0.041911 	4939 	0.041437
41.27 	0.044007 	4931 	0.043532
41.31 	0.041557 	4933 	0.041082
41.35 	0.044552 	4938 	0.044197
41.39 	0.041760 	4933 	0.040691
41.43 	0.034084 	4929 	0.033252
41.47 	0.044255 	4926 	0.043779
41.51 	0.040688 	4940 	0.040333
41.55 	0.042553 	4935 	0.041960
41.59 	0.044800 	4933 	0.044207
41.63 	0.043337 	4938 	0.042863
41.67 	0.043522 	4940 	0.042929
41.71 	0.039927 	4934 	0.039927
41.75 	0.038750 	4929 	0.038037
41.79 	0.038835 	4944 	0.038124
41.83 	0.039773 	4928 	0.039416
41.87 	0.040122 	4935 	0.039765
41.91 	0.034643 	4936 	0.034149
41.95 	0.038735 	4931 	0.038497
41.99 	0.043017 	4905 	0.042659
42.03 	0.036850 	4939 	0.036375
42.07 	0.037877 	4937 	0.037165
42.11 	0.042872 	4945 	0.042635
42.15 	0.038072 	4938 	0.037835
42.19 	0.042787 	4908 	0.042429
42.23 	0.036386 	4892 	0.036146
42.27 	0.038162 	4874 	0.037921
42.31 	0.037281 	4855 	0.036799
42.35 	0.044853 	4838 	0.044490
42.39 	0.041840 	4804 	0.041596
42.43 	0.039232 	4792 	0.038988
42.47 	0.041973 	4765 	0.041358
42.51 	0.040481 	4743 	0.039863
42.55 	0.043118 	4708 	0.042102
42.59 	0.038063 	4729 	0.037691
42.63 	0.032703 	4709 	0.032330
42.67 	0.040564 	4684 	0.040314
42.71 	0.041175 	4663 	0.040924
42.75 	0.036171 	4617 	0.036171
42.79 	0.045395 	4582 	0.045011
42.83 	0.038801 	4536 	0.038672
42.87 	0.045788 	4499 	0.045007
42.91 	0.039048 	4456 	0.038501
42.95 	0.043931 	4416 	0.043666
42.99 	0.037400 	4385 	0.036866
43.03 	0.034387 	4333 	0.034252
43.07 	0.037709 	4296 	0.037437
43.11 	0.036193 	4255 	0.035917
43.15 	0.039230 	4206 	0.038812
43.19 	0.047926 	4194 	0.047227
43.23 	0.036110 	4154 	0.035546
43.27 	0.036784 	4105 	0.036356
43.31 	0.038000 	4079 	0.037569
43.35 	0.035714 	4032 	0.035278
43.39 	0.036232 	4002 	0.035646
43.43 	0.037121 	3960 	0.036530
43.47 	0.038001 	3921 	0.037552
43.51 	0.036626 	3877 	0.036475
43.55 	0.042848 	2964 	0.042452
43.59 	0.048683 	1746 	0.048012
43.63 	0.051948 	1001 	0.050778
43.67 	0.021912 	502 	0.021912
43.71 	0.029289 	239 	0.029289
43.75 	0.000000 	16 	0.000000

File: 25SC_s1_0048.001.dat
#F C:\frames\spec\25SC_s1_0048.001
#C title =s:48 frm:1 25SC_s1
#C wavelength =0.15406

#S 1  fr_average C:\frames\spec\25SC_s1_0048.001 C:\win32app\speccom\mask.axs chi 0 180 0 360 0.02
#C 2 theta =0.000000 to 180 deg
#C   q   =0.000000 to 81.568 nm^-1
#C  chi  =0.000000 to 360 deg
#C collumns:
#C  1 position (2theta or chi in degrees)
#C  2 average intensity (sum of all counts in the region divided with number of pixels)
#C  3 Number of pixels in region)
#C  4 error (sum of sqrt(intensity) for all pixels divided by number)
#N 4
#L TTh  Int  N_pix  Err
32.99 	0.032787 	61 	0.032787
33.03 	0.066858 	1391 	0.065595
33.07 	0.057561 	2050 	0.056132
33.11 	0.053509 	2579 	0.052828
33.15 	0.064688 	2999 	0.063516
33.19 	0.064034 	3342 	0.063157
33.23 	0.053931 	3523 	0.053100
33.27 	0.049587 	3630 	0.049264
33.31 	0.062022 	3660 	0.061062
33.35 	0.062263 	3694 	0.061470
33.39 	0.063288 	3729 	0.062816
33.43 	0.058495 	3761 	0.058028
33.47 	0.057399 	3798 	0.056627
33.51 	0.055046 	3815 	0.054125
33.55 	0.056987 	3843 	0.056072
33.59 	0.058763 	3880 	0.057706
33.63 	0.056902 	3919 	0.056603
33.67 	0.061457 	3954 	0.059827
33.71 	0.060629 	3975 	0.059892
33.75 	0.058515 	3999 	0.057782
33.79 	0.061371 	4041 	0.059921
33.83 	0.061728 	4050 	0.061005
33.87 	0.058623 	4111 	0.058053
33.91 	0.060014 	4149 	0.058438
33.95 	0.067448 	4181 	0.066747
33.99 	0.054048 	4200 	0.052932
34.03 	0.061499 	4244 	0.060118
34.07 	0.062793 	4268 	0.061832
34.11 	0.055323 	4302 	0.054234
34.15 	0.063727 	4331 	0.062622
34.19 	0.052957 	4362 	0.051480
34.23 	0.061461 	4393 	0.060928
34.27 	0.063772 	4422 	0.062712
34.31 	0.056079 	4458 	0.055159
34.35 	0.057761 	4484 	0.056455
34.39 	0.054642 	4502 	0.053732
34.43 	0.058383 	4539 	0.056963
34.47 	0.057491 	4592 	0.056598
34.51 	0.058836 	4606 	0.057523
34.55 	0.056214 	4643 	0.054553
34.59 	0.060107 	4675 	0.058854
34.63 	0.057537 	4710 	0.056667
34.67 	0.052099 	4741 	0.051604
34.71 	0.055183 	4766 	0.054814
34.75 	0.056988 	4808 	0.056501
34.79 	0.064677 	4824 	0.063584
34.83 	0.056767 	4862 	0.056164
34.87 	0.054232 	4868 	0.053269
34.91 	0.051004 	4882 	0.049684
34.95 	0.059918 	4890 	0.058600
34.99 	0.060649 	4897 	0.059553
35.03 	0.054218 	4943 	0.053744
35.07 	0.054453 	4940 	0.053367
35.11 	0.060036 	4947 	0.059207
35.15 	0.052866 	4937 	0.052273
35.19 	0.053217 	4942 	0.052012
35.23 	0.060870 	4945 	0.059922
35.27 	0.057397 	4948 	0.056312
35.31 	0.057166 	4933 	0.056078
35.35 	0.055443 	4942 	0.054357
35.39 	0.058241 	4945 	0.057037
35.43 	0.057369 	4933 	0.055687
35.47 	0.058406 	4931 	0.057574
35.51 	0.052172 	4926 	0.051201
35.55 	0.052376 	4945 	0.051192
35.59 	0.058645 	4945 	0.057224
35.63 	0.051588 	4943 	0.050759
35.67 	0.060299 	4942 	0.059470
35.71 	0.055094 	4937 	0.054620
35.75 	0.060231 	4931 	0.058687
35.79 	0.050689 	4932 	0.050096
35.83 	0.056207 	4946 	0.055378
35.87 	0.055860 	4923 	0.054313
35.91 	0.050132 	4927 	0.049656
35.95 	0.054708 	4917 	0.053993
35.99 	0.066208 	4939 	0.065733
36.03 	0.059073 	4943 	0.058125
36.07 	0.058716 	4939 	0.057886
36.11 	0.055386 	4929 	0.054079
36.15 	0.059526 	4939 	0.057866
36.19 	0.056073 	4940 	0.054749
36.23 	0.057953 	4935 	0.056766
36.27 	0.059898 	4925 	0.059066
36.31 	0.058036 	4928 	0.056966
36.35 	0.057212 	4929 	0.056737
36.39 	0.058728 	4921 	0.057657
36.43 	0.051948 	4928 	0.051116
36.47 	0.059157 	4936 	0.058208
36.51 	0.058180 	4933 	0.057348
36.55 	0.055612 	4927 	0.054899
36.59 	0.061146 	4939 	0.060079
36.63 	0.060434 	4931 	0.059365
36.67 	0.053753 	4930 	0.052446
36.71 	0.058728 	4921 	0.057418
36.75 	0.052791 	4944 	0.052199
36.79 	0.061166 	4921 	0.059837
36.83 	0.053713 	4915 	0.053098
36.87 	0.057039 	4944 	0.056446
36.91 	0.061931 	4941 	0.061457
36.95 	0.058180 	4933 	0.057111
36.99 	0.053090 	4935 	0.052497
37.03 	0.060114 	4924 	0.059638
37.07 	0.061398 	4935 	0.060092
37.11 	0.051469 	4935 	0.050638
37.15 	0.053779 	4909 	0.053063
37.19 	0.055635 	4925 	0.054445
37.23 	0.051240 	4918 	0.050287
37.27 	0.059052 	4894 	0.057975
37.31 	0.054103 	4935 	0.053272
37.35 	0.054070 	4938 	0.052884
37.39 	0.056986 	4931 	0.056274
37.43 	0.053731 	4932 	0.052662
37.47 	0.054575 	4929 	0.053387
37.51 	0.063450 	4933 	0.062619
37.55 	0.058824 	4930 	0.057517
37.59 	0.059613 	4915 	0.058064
37.63 	0.054279 	4919 	0.053922
37.67 	0.064437 	4904 	0.063004
37.71 	0.056807 	4929 	0.056212
37.75 	0.051417 	4940 	0.050468
37.79 	0.049290 	4930 	0.048458
37.83 	0.057317 	4920 	0.056345
37.87 	0.052642 	4939 	0.051318
37.91 	0.054158 	4930 	0.053564
37.95 	0.056289 	4921 	0.054980
37.99 	0.048656 	4912 	0.047702
38.03 	0.056020 	4909 	0.055423
38.07 	0.061112 	4909 	0.059800
38.11 	0.054509 	4935 	0.053678
38.15 	0.061204 	4918 	0.060251
38.19 	0.061055 	4930 	0.060104
38.23 	0.059943 	4938 	0.058520
38.27 	0.060041 	4930 	0.059189
38.31 	0.069413 	4927 	0.068106
38.35 	0.073661 	4928 	0.071739
38.39 	0.071501 	4909 	0.070646
38.43 	0.080553 	4916 	0.078885
38.47 	0.072753 	4907 	0.071918
38.51 	0.067315 	4932 	0.066484
38.55 	0.075567 	4936 	0.074143
38.59 	0.068034 	4924 	0.066111
38.63 	0.061535 	4924 	0.060703
38.67 	0.068260 	4937 	0.066599
38.71 	0.054021 	4924 	0.053188
38.75 	0.057033 	4927 	0.056082
38.79 	0.054520 	4934 	0.053689
38.83 	0.054889 	4919 	0.053460
38.87 	0.051721 	4911 	0.050985
38.91 	0.052825 	4903 	0.052347
38.95 	0.048597 	4918 	0.048001
38.99 	0.047600 	4937 	0.047362
39.03 	0.047831 	4934 	0.047238
39.07 	0.045085 	4924 	0.044728
39.11 	0.043399 	4931 	0.043043
39.15 	0.047202 	4915 	0.046964
39.19 	0.052064 	4917 	0.051469
39.23 	0.051777 	4925 	0.051182
39.27 	0.047047 	4910 	0.046570
39.31 	0.040131 	4884 	0.039771
39.35 	0.047011 	4935 	0.046062
39.39 	0.041591 	4929 	0.040640
39.43 	0.046422 	4933 	0.045472
39.47 	0.042454 	4923 	0.041859
39.51 	0.044679 	4924 	0.044322
39.55 	0.040455 	4919 	0.040336
39.59 	0.049471 	4912 	0.048755
39.63 	0.048964 	4922 	0.048369
39.67 	0.044372 	4913 	0.043657
39.71 	0.043514 	4895 	0.042676
39.75 	0.042817 	4928 	0.042579
39.79 	0.045676 	4926 	0.045200
39.83 	0.044386 	4934 	0.043911
39.87 	0.050558 	4925 	0.049726
39.91 	0.041243 	4922 	0.040767
39.95 	0.043133 	4915 	0.042537
39.99 	0.040754 	4932 	0.040279
40.03 	0.043628 	4928 	0.042558
40.07 	0.045298 	4923 	0.044703
40.11 	0.046583 	4916 	0.045629
40.15 	0.043965 	4913 	0.043130
40.19 	0.041996 	4929 	0.041640
40.23 	0.037105 	4932 	0.036867
40.27 	0.039498 	4937 	0.039260
40.31 	0.041304 	4939 	0.040711
40.35 	0.042692 	4919 	0.042334
40.39 	0.036707 	4931 	0.036588
40.43 	0.046323 	4922 	0.045609
40.47 	0.045140 	4918 	0.044545
40.51 	0.040024 	4922 	0.039548
40.55 	0.043195 	4908 	0.042340
40.59 	0.048613 	4937 	0.047663
40.63 	0.041785 	4930 	0.041191
40.67 	0.042782 	4932 	0.042307
40.71 	0.040552 	4932 	0.039720
40.75 	0.043602 	4931 	0.042533
40.79 	0.047116 	4924 	0.046402
40.83 	0.041599 	4928 	0.041480
40.87 	0.042411 	4928 	0.042054
40.91 	0.038797 	4923 	0.038441
40.95 	0.040912 	4913 	0.040673
40.99 	0.043258 	4924 	0.042782
41.03 	0.046483 	4905 	0.046005
41.07 	0.037120 	4930 	0.036644
41.11 	0.040932 	4935 	0.040695
41.15 	0.043109 	4941 	0.042872
41.19 	0.039554 	4930 	0.038841
41.23 	0.042721 	4939 	0.042247
41.27 	0.039546 	4931 	0.038833
41.31 	0.041557 	4933 	0.041438
41.35 	0.040907 	4938 	0.040551
41.39 	0.042570 	4933 	0.042095
41.43 	0.043214 	4929 	0.042382
41.47 	0.033090 	4926 	0.032852
41.51 	0.036032 	4940 	0.035439
41.55 	0.044377 	4935 	0.044140
41.59 	0.037503 	4933 	0.037503
41.63 	0.044147 	4938 	0.043792
41.67 	0.035425 	4940 	0.035188
41.71 	0.041143 	4934 	0.040906
41.75 	0.040982 	4929 	0.040982
41.79 	0.036812 	4944 	0.036220
41.83 	0.040179 	4928 	0.040060
41.87 	0.042553 	4935 	0.042078
41.91 	0.044773 	4936 	0.044180
41.95 	0.035287 	4931 	0.035168
41.99 	0.036901 	4905 	0.036423
42.03 	0.038672 	4939 	0.038435
42.07 	0.038890 	4937 	0.038534
42.11 	0.037007 	4945 	0.036415
42.15 	0.036857 	4938 	0.036620
42.19 	0.039731 	4908 	0.039373
42.23 	0.035568 	4892 	0.034850
42.27 	0.037546 	4874 	0.037426
42.31 	0.037899 	4855 	0.037416
42.35 	0.037205 	4838 	0.036721
42.39 	0.034555 	4804 	0.034189
42.43 	0.040693 	4792 	0.040448
42.47 	0.038615 	4765 	0.038000
42.51 	0.039427 	4743 	0.039303
42.55 	0.037171 	4708 	0.036922
42.59 	0.038697 	4729 	0.038450
42.63 	0.041410 	4709 	0.040290
42.67 	0.035653 	4684 	0.035403
42.71 	0.035385 	4663 	0.035259
42.75 	0.041585 	4617 	0.040951
42.79 	0.035137 	4582 	0.035010
42.83 	0.039903 	4536 	0.039774
42.87 	0.034452 	4499 	0.034192
42.91 	0.036131 	4456 	0.035737
42.95 	0.042799 	4416 	0.042003
42.99 	0.036032 	4385 	0.035765
43.03 	0.036003 	4333 	0.035192
43.07 	0.039804 	4296 	0.039237
43.11 	0.035488 	4255 	0.034249
43.15 	0.039943 	4206 	0.039386
43.19 	0.036719 	4194 	0.036300
43.23 	0.040443 	4154 	0.040020
43.27 	0.032400 	4105 	0.032400
43.31 	0.032361 	4079 	0.031786
43.35 	0.033978 	4032 	0.033542
43.39 	0.034733 	4002 	0.034294
43.43 	0.036869 	3960 	0.036721
43.47 	0.034685 	3921 	0.034386
43.51 	0.035337 	3877 	0.035186
43.55 	0.038462 	2964 	0.038264
43.59 	0.036082 	1746 	0.035076
43.63 	0.042957 	1001 	0.042957
43.67 	0.045817 	502 	0.044650
43.71 	0.037657 	239 	0.037657
43.75 	0.000000 	16 	0.000000