Folder: Bessy-II-KMC-II-insitu-sin2psi/Example_Data (part 9)

File: 25SC_s1_0004.000.dat
#F C:\frames\spec\25SC_s1_0004.000
#C title =s:4 frm:0 25SC_s1
#C wavelength =0.15406

#S 1  fr_average C:\frames\spec\25SC_s1_0004.000 C:\win32app\speccom\mask.axs chi 0 180 0 360 0.02
#C 2 theta =0.000000 to 180 deg
#C   q   =0.000000 to 81.568 nm^-1
#C  chi  =0.000000 to 360 deg
#C collumns:
#C  1 position (2theta or chi in degrees)
#C  2 average intensity (sum of all counts in the region divided with number of pixels)
#C  3 Number of pixels in region)
#C  4 error (sum of sqrt(intensity) for all pixels divided by number)
#N 4
#L TTh  Int  N_pix  Err
32.99 	0.114754 	61 	0.114754
33.03 	0.061107 	1391 	0.061107
33.07 	0.054146 	2050 	0.052718
33.11 	0.067080 	2579 	0.065263
33.15 	0.063021 	2999 	0.061849
33.19 	0.059246 	3342 	0.058194
33.23 	0.060744 	3523 	0.059912
33.27 	0.061157 	3630 	0.059866
33.31 	0.061749 	3660 	0.060628
33.35 	0.059285 	3694 	0.058149
33.39 	0.062483 	3729 	0.061541
33.43 	0.062749 	3761 	0.061322
33.47 	0.058189 	3798 	0.057417
33.51 	0.057929 	3815 	0.056701
33.55 	0.058808 	3843 	0.057894
33.59 	0.061340 	3880 	0.060132
33.63 	0.066343 	3919 	0.064849
33.67 	0.063733 	3954 	0.062844
33.71 	0.062642 	3975 	0.061463
33.75 	0.048512 	3999 	0.048073
33.79 	0.059639 	4041 	0.058624
33.83 	0.060741 	4050 	0.060018
33.87 	0.057407 	4111 	0.055982
33.91 	0.053266 	4149 	0.052701
33.95 	0.064099 	4181 	0.062698
33.99 	0.060000 	4200 	0.059303
34.03 	0.059849 	4244 	0.059159
34.07 	0.055295 	4268 	0.054472
34.11 	0.055323 	4302 	0.054642
34.15 	0.061418 	4331 	0.060336
34.19 	0.056396 	4362 	0.055053
34.23 	0.056226 	4393 	0.054892
34.27 	0.058345 	4422 	0.057815
34.31 	0.057873 	4458 	0.056822
34.35 	0.055085 	4484 	0.053909
34.39 	0.058863 	4502 	0.057952
34.43 	0.064552 	4539 	0.062982
34.47 	0.064024 	4592 	0.063004
34.51 	0.056665 	4606 	0.055902
34.55 	0.060952 	4643 	0.060069
34.59 	0.055615 	4675 	0.054362
34.63 	0.060297 	4710 	0.058784
34.67 	0.057583 	4741 	0.056327
34.71 	0.057281 	4766 	0.055909
34.75 	0.062396 	4808 	0.060670
34.79 	0.055141 	4824 	0.054291
34.83 	0.060880 	4862 	0.059555
34.87 	0.057108 	4868 	0.056025
34.91 	0.057149 	4882 	0.056069
34.95 	0.057260 	4890 	0.056062
34.99 	0.056157 	4897 	0.055319
35.03 	0.060490 	4943 	0.059660
35.07 	0.057085 	4940 	0.056018
35.11 	0.054174 	4947 	0.053345
35.15 	0.057727 	4937 	0.056778
35.19 	0.057871 	4942 	0.056904
35.23 	0.056016 	4945 	0.055049
35.27 	0.057599 	4948 	0.055804
35.31 	0.056152 	4933 	0.055321
35.35 	0.055443 	4942 	0.054732
35.39 	0.053994 	4945 	0.053402
35.43 	0.055139 	4933 	0.054308
35.47 	0.062056 	4931 	0.060987
35.51 	0.056841 	4926 	0.056128
35.55 	0.057027 	4945 	0.056317
35.59 	0.063903 	4945 	0.062481
35.63 	0.055027 	4943 	0.054435
35.67 	0.058883 	4942 	0.058053
35.71 	0.061373 	4937 	0.059317
35.75 	0.060231 	4931 	0.059518
35.79 	0.062855 	4932 	0.061054
35.83 	0.060049 	4946 	0.059101
35.87 	0.055454 	4923 	0.054145
35.91 	0.059874 	4927 	0.058923
35.95 	0.055725 	4917 	0.054772
35.99 	0.064588 	4939 	0.063283
36.03 	0.058467 	4943 	0.057755
36.07 	0.067827 	4939 	0.066286
36.11 	0.064719 	4929 	0.063293
36.15 	0.065195 	4939 	0.064247
36.19 	0.061741 	4940 	0.060792
36.23 	0.064843 	4935 	0.063993
36.27 	0.059898 	4925 	0.058352
36.31 	0.053369 	4928 	0.052299
36.35 	0.059038 	4929 	0.058088
36.39 	0.063199 	4921 	0.062246
36.43 	0.060877 	4928 	0.060163
36.47 	0.066045 	4936 	0.064740
36.51 	0.062437 	4933 	0.060655
36.55 	0.063528 	4927 	0.063052
36.59 	0.056084 	4939 	0.055610
36.63 	0.063679 	4931 	0.063085
36.67 	0.065517 	4930 	0.064567
36.71 	0.059134 	4921 	0.057944
36.75 	0.064320 	4944 	0.063136
36.79 	0.061979 	4921 	0.061027
36.83 	0.051679 	4915 	0.050129
36.87 	0.058657 	4944 	0.057828
36.91 	0.060312 	4941 	0.059008
36.95 	0.061018 	4933 	0.060068
36.99 	0.061803 	4935 	0.060973
37.03 	0.057880 	4924 	0.056571
37.07 	0.060790 	4935 	0.059010
37.11 	0.055522 	4935 	0.054810
37.15 	0.062742 	4909 	0.061887
37.19 	0.056853 	4925 	0.056139
37.23 	0.063847 	4918 	0.063013
37.27 	0.059869 	4894 	0.058912
37.31 	0.059980 	4935 	0.057962
37.35 	0.061766 	4938 	0.059749
37.39 	0.058406 	4931 	0.057080
37.43 	0.060219 	4932 	0.059625
37.47 	0.063502 	4929 	0.062432
37.51 	0.062437 	4933 	0.062080
37.55 	0.051116 	4930 	0.050640
37.59 	0.058189 	4915 	0.057355
37.63 	0.054279 	4919 	0.052969
37.67 	0.057708 	4904 	0.056872
37.71 	0.055184 	4929 	0.053757
37.75 	0.055061 	4940 	0.054349
37.79 	0.064503 	4930 	0.063552
37.83 	0.058130 	4920 	0.057297
37.87 	0.062361 	4939 	0.061412
37.91 	0.053144 	4930 	0.052788
37.95 	0.055070 	4921 	0.054713
37.99 	0.062296 	4912 	0.061819
38.03 	0.053575 	4909 	0.052382
38.07 	0.058668 	4909 	0.057952
38.11 	0.056738 	4935 	0.055551
38.15 	0.063644 	4918 	0.062691
38.19 	0.057606 	4930 	0.057012
38.23 	0.061563 	4938 	0.060970
38.27 	0.063286 	4930 	0.062098
38.31 	0.060889 	4927 	0.060057
38.35 	0.057630 	4928 	0.057036
38.39 	0.074557 	4909 	0.072767
38.43 	0.077705 	4916 	0.076156
38.47 	0.076829 	4907 	0.075158
38.51 	0.085564 	4932 	0.083644
38.55 	0.079822 	4936 	0.077923
38.59 	0.077782 	4924 	0.076236
38.63 	0.083672 	4924 	0.081035
38.67 	0.082439 	4937 	0.080422
38.71 	0.067425 	4924 	0.065997
38.75 	0.061092 	4927 	0.059883
38.79 	0.063640 	4934 	0.061958
38.83 	0.058548 	4919 	0.057596
38.87 	0.054368 	4911 	0.053771
38.91 	0.049969 	4903 	0.049611
38.95 	0.054087 	4918 	0.053491
38.99 	0.050435 	4937 	0.050080
39.03 	0.049453 	4934 	0.049215
39.07 	0.053615 	4924 	0.052901
39.11 	0.047252 	4931 	0.046401
39.15 	0.045371 	4915 	0.044775
39.19 	0.051454 	4917 	0.050620
39.23 	0.043452 	4925 	0.042738
39.27 	0.049084 	4910 	0.048368
39.31 	0.047297 	4884 	0.045978
39.35 	0.044174 	4935 	0.043343
39.39 	0.048083 	4929 	0.047132
39.43 	0.042570 	4933 	0.041977
39.47 	0.046313 	4923 	0.045718
39.51 	0.045491 	4924 	0.045016
39.55 	0.043708 	4919 	0.043470
39.59 	0.044178 	4912 	0.043343
39.63 	0.045713 	4922 	0.045356
39.67 	0.047629 	4913 	0.046675
39.71 	0.044740 	4895 	0.043902
39.75 	0.046672 	4928 	0.045721
39.79 	0.043646 	4926 	0.043289
39.83 	0.047426 	4934 	0.046476
39.87 	0.043249 	4925 	0.042654
39.91 	0.047338 	4922 	0.046743
39.95 	0.046999 	4915 	0.046999
39.99 	0.039740 	4932 	0.039384
40.03 	0.042005 	4928 	0.041411
40.07 	0.045298 	4923 	0.044822
40.11 	0.045566 	4916 	0.044970
40.15 	0.045390 	4913 	0.044913
40.19 	0.045445 	4929 	0.044732
40.23 	0.050487 	4932 	0.049873
40.27 	0.045372 	4937 	0.044660
40.31 	0.044948 	4939 	0.043881
40.35 	0.040455 	4919 	0.040217
40.39 	0.045630 	4931 	0.045036
40.43 	0.041853 	4922 	0.041615
40.47 	0.041074 	4918 	0.040954
40.51 	0.050792 	4922 	0.050078
40.55 	0.042991 	4908 	0.042394
40.59 	0.043751 	4937 	0.043158
40.63 	0.046045 	4930 	0.045451
40.67 	0.038321 	4932 	0.037827
40.71 	0.043593 	4932 	0.043118
40.75 	0.042385 	4931 	0.042385
40.79 	0.044070 	4924 	0.043356
40.83 	0.046266 	4928 	0.045533
40.87 	0.045860 	4928 	0.045028
40.91 	0.042860 	4923 	0.042146
40.95 	0.038673 	4913 	0.038196
40.99 	0.042851 	4924 	0.041900
41.03 	0.036290 	4905 	0.035812
41.07 	0.038337 	4930 	0.038337
41.11 	0.044377 	4935 	0.043902
41.15 	0.041894 	4941 	0.041657
41.19 	0.043002 	4930 	0.042408
41.23 	0.040494 	4939 	0.040257
41.27 	0.043805 	4931 	0.043211
41.31 	0.044598 	4933 	0.043885
41.35 	0.036655 	4938 	0.036061
41.39 	0.047233 	4933 	0.046520
41.43 	0.037939 	4929 	0.037582
41.47 	0.039789 	4926 	0.039551
41.51 	0.041700 	4940 	0.040989
41.55 	0.043566 	4935 	0.042735
41.59 	0.042165 	4933 	0.041690
41.63 	0.042325 	4938 	0.041732
41.67 	0.040891 	4940 	0.040061
41.71 	0.040940 	4934 	0.040347
41.75 	0.038750 	4929 	0.038394
41.79 	0.043285 	4944 	0.042929
41.83 	0.043831 	4928 	0.043118
41.87 	0.034245 	4935 	0.034008
41.91 	0.041126 	4936 	0.040414
41.95 	0.041777 	4931 	0.041301
41.99 	0.037105 	4905 	0.036747
42.03 	0.038469 	4939 	0.037995
42.07 	0.042941 	4937 	0.041755
42.11 	0.040647 	4945 	0.039936
42.15 	0.041312 	4938 	0.040719
42.19 	0.041157 	4908 	0.041038
42.23 	0.042518 	4892 	0.041680
42.27 	0.038572 	4874 	0.038091
42.31 	0.040783 	4855 	0.040179
42.35 	0.039066 	4838 	0.038581
42.39 	0.038510 	4804 	0.038144
42.43 	0.037771 	4792 	0.037160
42.47 	0.042183 	4765 	0.041937
42.51 	0.038162 	4743 	0.037667
42.55 	0.039720 	4708 	0.039098
42.59 	0.048002 	4729 	0.047506
42.63 	0.035464 	4709 	0.035215
42.67 	0.040991 	4684 	0.039990
42.71 	0.039460 	4663 	0.038831
42.75 	0.037254 	4617 	0.036746
42.79 	0.042994 	4582 	0.042227
42.83 	0.040785 	4536 	0.040397
42.87 	0.039120 	4499 	0.038990
42.91 	0.039722 	4456 	0.039327
42.95 	0.039402 	4416 	0.039402
42.99 	0.040821 	4385 	0.040821
43.03 	0.039465 	4333 	0.039329
43.07 	0.041899 	4296 	0.041354
43.11 	0.031727 	4255 	0.031590
43.15 	0.037565 	4206 	0.036590
43.19 	0.038865 	4194 	0.038586
43.23 	0.036832 	4154 	0.036691
43.27 	0.041657 	4105 	0.041228
43.31 	0.037754 	4079 	0.037467
43.35 	0.034722 	4032 	0.034286
43.39 	0.035482 	4002 	0.035482
43.43 	0.034848 	3960 	0.034553
43.47 	0.039021 	3921 	0.038274
43.51 	0.039464 	3877 	0.038859
43.55 	0.036100 	2964 	0.036100
43.59 	0.032646 	1746 	0.031640
43.63 	0.033966 	1001 	0.033966
43.67 	0.021912 	502 	0.021912
43.71 	0.029289 	239 	0.029289
43.75 	0.000000 	16 	0.000000

File: 25SC_s1_0004.001.dat
#F C:\frames\spec\25SC_s1_0004.001
#C title =s:4 frm:1 25SC_s1
#C wavelength =0.15406

#S 1  fr_average C:\frames\spec\25SC_s1_0004.001 C:\win32app\speccom\mask.axs chi 0 180 0 360 0.02
#C 2 theta =0.000000 to 180 deg
#C   q   =0.000000 to 81.568 nm^-1
#C  chi  =0.000000 to 360 deg
#C collumns:
#C  1 position (2theta or chi in degrees)
#C  2 average intensity (sum of all counts in the region divided with number of pixels)
#C  3 Number of pixels in region)
#C  4 error (sum of sqrt(intensity) for all pixels divided by number)
#N 4
#L TTh  Int  N_pix  Err
32.99 	0.065574 	61 	0.065574
33.03 	0.055356 	1391 	0.054023
33.07 	0.056585 	2050 	0.055728
33.11 	0.058162 	2579 	0.057481
33.15 	0.062021 	2999 	0.061044
33.19 	0.057451 	3342 	0.055669
33.23 	0.064150 	3523 	0.062986
33.27 	0.058402 	3630 	0.056788
33.31 	0.062295 	3660 	0.060535
33.35 	0.058202 	3694 	0.057251
33.39 	0.053634 	3729 	0.052691
33.43 	0.056102 	3761 	0.055012
33.47 	0.057135 	3798 	0.055876
33.51 	0.060550 	3815 	0.059911
33.55 	0.064533 	3843 	0.063313
33.59 	0.062113 	3880 	0.061057
33.63 	0.054861 	3919 	0.054413
33.67 	0.056399 	3954 	0.055806
33.71 	0.055346 	3975 	0.053553
33.75 	0.062266 	3999 	0.061656
33.79 	0.058154 	4041 	0.057284
33.83 	0.059259 	4050 	0.057789
33.87 	0.055947 	4111 	0.055235
33.91 	0.061702 	4149 	0.059866
33.95 	0.060273 	4181 	0.059712
33.99 	0.057619 	4200 	0.056341
34.03 	0.057729 	4244 	0.057038
34.07 	0.054827 	4268 	0.053591
34.11 	0.052766 	4302 	0.051813
34.15 	0.061649 	4331 	0.060680
34.19 	0.060752 	4362 	0.059656
34.23 	0.066242 	4393 	0.064908
34.27 	0.058345 	4422 	0.057396
34.31 	0.060117 	4458 	0.059460
34.35 	0.059099 	4484 	0.058054
34.39 	0.056864 	4502 	0.055823
34.43 	0.053756 	4539 	0.053111
34.47 	0.055096 	4592 	0.054309
34.51 	0.057968 	4606 	0.056802
34.55 	0.058367 	4643 	0.057484
34.59 	0.061390 	4675 	0.060263
34.63 	0.055626 	4710 	0.054258
34.67 	0.064754 	4741 	0.063519
34.71 	0.059379 	4766 	0.058519
34.75 	0.058028 	4808 	0.057054
34.79 	0.057214 	4824 	0.056607
34.83 	0.056561 	4862 	0.055356
34.87 	0.052177 	4868 	0.051315
34.91 	0.056739 	4882 	0.056259
34.95 	0.057055 	4890 	0.056336
34.99 	0.054319 	4897 	0.053362
35.03 	0.057657 	4943 	0.056946
35.07 	0.060121 	4940 	0.058798
35.11 	0.059228 	4947 	0.057688
35.15 	0.054689 	4937 	0.053977
35.19 	0.061311 	4942 	0.060244
35.23 	0.056421 	4945 	0.055354
35.27 	0.057397 	4948 	0.055976
35.31 	0.061829 	4933 	0.060879
35.35 	0.060299 	4942 	0.058996
35.39 	0.052174 	4945 	0.050970
35.43 	0.055544 	4933 	0.054594
35.47 	0.056986 	4931 	0.055680
35.51 	0.058668 	4926 	0.057598
35.55 	0.060465 	4945 	0.059636
35.59 	0.056016 	4945 	0.055068
35.63 	0.057455 	4943 	0.056388
35.67 	0.059085 	4942 	0.058374
35.71 	0.057930 	4937 	0.057574
35.75 	0.064490 	4931 	0.063164
35.79 	0.053122 	4932 	0.051935
35.83 	0.058835 	4946 	0.058006
35.87 	0.060329 	4923 	0.059139
35.91 	0.057439 	4927 	0.056369
35.95 	0.058979 	4917 	0.057788
35.99 	0.060539 	4939 	0.059214
36.03 	0.055837 	4943 	0.054888
36.07 	0.056894 	4939 	0.056282
36.11 	0.060256 	4929 	0.059899
36.15 	0.059729 	4939 	0.058780
36.19 	0.055668 	4940 	0.054719
36.23 	0.065856 	4935 	0.064194
36.27 	0.065381 	4925 	0.063815
36.31 	0.065341 	4928 	0.064152
36.35 	0.061473 	4929 	0.060166
36.39 	0.060963 	4921 	0.059773
36.43 	0.060268 	4928 	0.059674
36.47 	0.062399 	4936 	0.060856
36.51 	0.064261 	4933 	0.062955
36.55 	0.060077 	4927 	0.059126
36.59 	0.058716 	4939 	0.056918
36.63 	0.058406 	4931 	0.057099
36.67 	0.060243 	4930 	0.059530
36.71 	0.063199 	4921 	0.062127
36.75 	0.060275 	4944 	0.059525
36.79 	0.056899 	4921 	0.056185
36.83 	0.069990 	4915 	0.068401
36.87 	0.062702 	4944 	0.061517
36.91 	0.065371 	4941 	0.063949
36.95 	0.065477 	4933 	0.064527
36.99 	0.059372 	4935 	0.057710
37.03 	0.060723 	4924 	0.059890
37.07 	0.059980 	4935 	0.059149
37.11 	0.059777 	4935 	0.058709
37.15 	0.063760 	4909 	0.062906
37.19 	0.062132 	4925 	0.061180
37.23 	0.059374 	4918 	0.057587
37.27 	0.055783 	4894 	0.055064
37.31 	0.065248 	4935 	0.064536
37.35 	0.056096 	4938 	0.055028
37.39 	0.053539 	4931 	0.052470
37.43 	0.051703 	4932 	0.050634
37.47 	0.062690 	4929 	0.061245
37.51 	0.059193 	4933 	0.057768
37.55 	0.051116 	4930 	0.050522
37.59 	0.051475 	4915 	0.050283
37.63 	0.053466 	4919 	0.052275
37.67 	0.055261 	4904 	0.054305
37.71 	0.059850 	4929 	0.059374
37.75 	0.054049 	4940 	0.052981
37.79 	0.052333 	4930 	0.051739
37.83 	0.063008 	4920 	0.061818
37.87 	0.049808 	4939 	0.049333
37.91 	0.052941 	4930 	0.051347
37.95 	0.047551 	4921 	0.046361
37.99 	0.052932 	4912 	0.051978
38.03 	0.055612 	4909 	0.054538
38.07 	0.053168 	4909 	0.052810
38.11 	0.055522 	4935 	0.054810
38.15 	0.055510 	4918 	0.054677
38.19 	0.050101 	4930 	0.049626
38.23 	0.051640 	4938 	0.050929
38.27 	0.061055 	4930 	0.059391
38.31 	0.062919 	4927 	0.061849
38.35 	0.058644 	4928 	0.057456
38.39 	0.069668 	4909 	0.068216
38.43 	0.074044 	4916 	0.072495
38.47 	0.073568 	4907 	0.071181
38.51 	0.080495 	4932 	0.079188
38.55 	0.077796 	4936 	0.075660
38.59 	0.080422 	4924 	0.078400
38.63 	0.074330 	4924 	0.073021
38.67 	0.074134 	4937 	0.072710
38.71 	0.062957 	4924 	0.061648
38.75 	0.057642 	4927 	0.056572
38.79 	0.058573 	4934 	0.057861
38.83 	0.056922 	4919 	0.055969
38.87 	0.050703 	4911 	0.049987
38.91 	0.046706 	4903 	0.046348
38.95 	0.053680 	4918 	0.052470
38.99 	0.050030 	4937 	0.049081
39.03 	0.050872 	4934 	0.050159
39.07 	0.046710 	4924 	0.045758
39.11 	0.047658 	4931 	0.047420
39.15 	0.049034 	4915 	0.048199
39.19 	0.047387 	4917 	0.046553
39.23 	0.047716 	4925 	0.046645
39.27 	0.050306 	4910 	0.049590
39.31 	0.044431 	4884 	0.043831
39.35 	0.045795 	4935 	0.044846
39.39 	0.045648 	4929 	0.044935
39.43 	0.044395 	4933 	0.044039
39.47 	0.049360 	4923 	0.048646
39.51 	0.046304 	4924 	0.045947
39.55 	0.048587 	4919 	0.047992
39.59 	0.049267 	4912 	0.048552
39.63 	0.046932 	4922 	0.046337
39.67 	0.051089 	4913 	0.050254
39.71 	0.043922 	4895 	0.042965
39.75 	0.040787 	4928 	0.040193
39.79 	0.051969 	4926 	0.051117
39.83 	0.041346 	4934 	0.041108
39.87 	0.041624 	4925 	0.041268
39.91 	0.043072 	4922 	0.042358
39.95 	0.046796 	4915 	0.046557
39.99 	0.042579 	4932 	0.041985
40.03 	0.045049 	4928 	0.044454
40.07 	0.045094 	4923 	0.044262
40.11 	0.046176 	4916 	0.045937
40.15 	0.044169 	4913 	0.043434
40.19 	0.036924 	4929 	0.036687
40.23 	0.043187 	4932 	0.042593
40.27 	0.046790 	4937 	0.046078
40.31 	0.045556 	4939 	0.044963
40.35 	0.045131 	4919 	0.044655
40.39 	0.046441 	4931 	0.045728
40.43 	0.041040 	4922 	0.040445
40.47 	0.039650 	4918 	0.039174
40.51 	0.042462 	4922 	0.042105
40.55 	0.045436 	4908 	0.044720
40.59 	0.047802 	4937 	0.047328
40.63 	0.041582 	4930 	0.040869
40.67 	0.045418 	4932 	0.045180
40.71 	0.037713 	4932 	0.037119
40.75 	0.047455 	4931 	0.047098
40.79 	0.044070 	4924 	0.043951
40.83 	0.046672 	4928 	0.046197
40.87 	0.038149 	4928 	0.037793
40.91 	0.042454 	4923 	0.041978
40.95 	0.043761 	4913 	0.042927
40.99 	0.043054 	4924 	0.042321
41.03 	0.042610 	4905 	0.042610
41.07 	0.040974 	4930 	0.040380
41.11 	0.043364 	4935 	0.042513
41.15 	0.042299 	4941 	0.041706
41.19 	0.046045 	4930 	0.045213
41.23 	0.043531 	4939 	0.043057
41.27 	0.048672 	4931 	0.047721
41.31 	0.036084 	4933 	0.035965
41.35 	0.040097 	4938 	0.039385
41.39 	0.044192 	4933 	0.043698
41.43 	0.042199 	4929 	0.041724
41.47 	0.046488 	4926 	0.046131
41.51 	0.045951 	4940 	0.045240
41.55 	0.039919 	4935 	0.039207
41.59 	0.040949 	4933 	0.040117
41.63 	0.044350 	4938 	0.043875
41.67 	0.045547 	4940 	0.045072
41.71 	0.039927 	4934 	0.038859
41.75 	0.043214 	4929 	0.042976
41.79 	0.044498 	4944 	0.044024
41.83 	0.040179 	4928 	0.040060
41.87 	0.038298 	4935 	0.037942
41.91 	0.045989 	4936 	0.045514
41.95 	0.041777 	4931 	0.041658
41.99 	0.046687 	4905 	0.045851
42.03 	0.041101 	4939 	0.040983
42.07 	0.044359 	4937 	0.043884
42.11 	0.045096 	4945 	0.044741
42.15 	0.037465 	4938 	0.036852
42.19 	0.038305 	4908 	0.037350
42.23 	0.043132 	4892 	0.042533
42.27 	0.037136 	4874 	0.036535
42.31 	0.038929 	4855 	0.038567
42.35 	0.042373 	4838 	0.042010
42.39 	0.044963 	4804 	0.044231
42.43 	0.040275 	4792 	0.040031
42.47 	0.040294 	4765 	0.039556
42.51 	0.044487 	4743 	0.043499
42.55 	0.037383 	4708 	0.037134
42.59 	0.037640 	4729 	0.037145
42.63 	0.040348 	4709 	0.039851
42.67 	0.037575 	4684 	0.037200
42.71 	0.040532 	4663 	0.039883
42.75 	0.040719 	4617 	0.040338
42.79 	0.036447 	4582 	0.035552
42.83 	0.037037 	4536 	0.036391
42.87 	0.036675 	4499 	0.036675
42.91 	0.033662 	4456 	0.033531
42.95 	0.036232 	4416 	0.036232
42.99 	0.042189 	4385 	0.041789
43.03 	0.033003 	4333 	0.032867
43.07 	0.038408 	4296 	0.037862
43.11 	0.040423 	4255 	0.039574
43.15 	0.032335 	4206 	0.031917
43.19 	0.040057 	4194 	0.039638
43.23 	0.032740 	4154 	0.032740
43.27 	0.041413 	4105 	0.040985
43.31 	0.038245 	4079 	0.037670
43.35 	0.035962 	4032 	0.035817
43.39 	0.034233 	4002 	0.033940
43.43 	0.037374 	3960 	0.036930
43.47 	0.039276 	3921 	0.039276
43.51 	0.041527 	3877 	0.041376
43.55 	0.035088 	2964 	0.034890
43.59 	0.034364 	1746 	0.034364
43.63 	0.037962 	1001 	0.037377
43.67 	0.037849 	502 	0.035515
43.71 	0.029289 	239 	0.029289
43.75 	0.062500 	16 	0.062500