Folder: Bessy-II-KMC-II-insitu-sin2psi/Example_Data (part 32)

File: 25SC_s1_0013.001.dat
#F C:\frames\spec\25SC_s1_0013.001
#C title =s:13 frm:1 25SC_s1
#C wavelength =0.15406

#S 1  fr_average C:\frames\spec\25SC_s1_0013.001 C:\win32app\speccom\mask.axs chi 0 180 0 360 0.02
#C 2 theta =0.000000 to 180 deg
#C   q   =0.000000 to 81.568 nm^-1
#C  chi  =0.000000 to 360 deg
#C collumns:
#C  1 position (2theta or chi in degrees)
#C  2 average intensity (sum of all counts in the region divided with number of pixels)
#C  3 Number of pixels in region)
#C  4 error (sum of sqrt(intensity) for all pixels divided by number)
#N 4
#L TTh  Int  N_pix  Err
32.99 	0.049180 	61 	0.049180
33.03 	0.058950 	1391 	0.058529
33.07 	0.063415 	2050 	0.061700
33.11 	0.068631 	2579 	0.066323
33.15 	0.057019 	2999 	0.056433
33.19 	0.055057 	3342 	0.054356
33.23 	0.057337 	3523 	0.056174
33.27 	0.055096 	3630 	0.054290
33.31 	0.057650 	3660 	0.057010
33.35 	0.053600 	3694 	0.052173
33.39 	0.054438 	3729 	0.052867
33.43 	0.065408 	3761 	0.064629
33.47 	0.056345 	3798 	0.055112
33.51 	0.061075 	3815 	0.059693
33.55 	0.060109 	3843 	0.059500
33.59 	0.059794 	3880 	0.058435
33.63 	0.058178 	3919 	0.057431
33.67 	0.065503 	3954 	0.064466
33.71 	0.065157 	3975 	0.064126
33.75 	0.057514 	3999 	0.056343
33.79 	0.054937 	4041 	0.054502
33.83 	0.056049 	4050 	0.055615
33.87 	0.061056 	4111 	0.059773
33.91 	0.055676 	4149 	0.054829
33.95 	0.057881 	4181 	0.056340
33.99 	0.065476 	4200 	0.065058
34.03 	0.056550 	4244 	0.055446
34.07 	0.055061 	4268 	0.054078
34.11 	0.060205 	4302 	0.059251
34.15 	0.049180 	4331 	0.048234
34.19 	0.060752 	4362 	0.059521
34.23 	0.059868 	4393 	0.058935
34.27 	0.061058 	4422 	0.059734
34.31 	0.052490 	4458 	0.052227
34.35 	0.053301 	4484 	0.052778
34.39 	0.053532 	4502 	0.052361
34.43 	0.051774 	4539 	0.051386
34.47 	0.056402 	4592 	0.055127
34.51 	0.064481 	4606 	0.063570
34.55 	0.051906 	4643 	0.051275
34.59 	0.055187 	4675 	0.054164
34.63 	0.053079 	4710 	0.052581
34.67 	0.051255 	4741 	0.050761
34.71 	0.052455 	4766 	0.052086
34.75 	0.055116 	4808 	0.054264
34.79 	0.066128 	4824 	0.064306
34.83 	0.058001 	4862 	0.057519
34.87 	0.049712 	4868 	0.049351
34.91 	0.053667 	4882 	0.052107
34.95 	0.060123 	4890 	0.059284
34.99 	0.057178 	4897 	0.056699
35.03 	0.061299 	4943 	0.060351
35.07 	0.053644 	4940 	0.053169
35.11 	0.055791 	4947 	0.055436
35.15 	0.052461 	4937 	0.051630
35.19 	0.061716 	4942 	0.059819
35.23 	0.064105 	4945 	0.062901
35.27 	0.064470 	4948 	0.062931
35.31 	0.061018 	4933 	0.059949
35.35 	0.055848 	4942 	0.054900
35.39 	0.062083 	4945 	0.061491
35.43 	0.065477 	4933 	0.064290
35.47 	0.058000 	4931 	0.056912
35.51 	0.068209 	4926 	0.067020
35.55 	0.063094 	4945 	0.062028
35.59 	0.056623 	4945 	0.055675
35.63 	0.058669 	4943 	0.058057
35.67 	0.057467 	4942 	0.056400
35.71 	0.060968 	4937 	0.059169
35.75 	0.057189 	4931 	0.055764
35.79 	0.058394 	4932 	0.057444
35.83 	0.059038 	4946 	0.058090
35.87 	0.052204 	4923 	0.051847
35.91 	0.057033 	4927 	0.056200
35.95 	0.061216 	4917 	0.060501
35.99 	0.059729 	4939 	0.059017
36.03 	0.061906 	4943 	0.060602
36.07 	0.055274 	4939 	0.054800
36.11 	0.051329 	4929 	0.050616
36.15 	0.056084 	4939 	0.054780
36.19 	0.055668 	4940 	0.055194
36.23 	0.065653 	4935 	0.064585
36.27 	0.055025 	4925 	0.053955
36.31 	0.066356 	4928 	0.065286
36.35 	0.062284 	4929 	0.060858
36.39 	0.060150 	4921 	0.059198
36.43 	0.059659 	4928 	0.058708
36.47 	0.058347 	4936 	0.057041
36.51 	0.058180 	4933 	0.057467
36.55 	0.058453 	4927 	0.057264
36.59 	0.059526 	4939 	0.058222
36.63 	0.057595 	4931 	0.056644
36.67 	0.062475 	4930 	0.061524
36.71 	0.062589 	4921 	0.061994
36.75 	0.066545 	4944 	0.064986
36.79 	0.060963 	4921 	0.060011
36.83 	0.061038 	4915 	0.060203
36.87 	0.063107 	4944 	0.062514
36.91 	0.056871 	4941 	0.056041
36.95 	0.061626 	4933 	0.059845
36.99 	0.067072 	4935 	0.066122
37.03 	0.058286 	4924 	0.057572
37.07 	0.057548 	4935 	0.056242
37.11 	0.066059 	4935 	0.064397
37.15 	0.061316 	4909 	0.060580
37.19 	0.057259 	4925 	0.056069
37.23 	0.056730 	4918 	0.055897
37.27 	0.057213 	4894 	0.056495
37.31 	0.054103 	4935 	0.052916
37.35 	0.062778 	4938 	0.062185
37.39 	0.056986 	4931 	0.056036
37.43 	0.055353 	4932 	0.054403
37.47 	0.054372 	4929 	0.053897
37.51 	0.051287 	4933 	0.050575
37.55 	0.060243 	4930 	0.059768
37.59 	0.054120 	4915 	0.053524
37.63 	0.048587 	4919 	0.047515
37.67 	0.051998 	4904 	0.051162
37.71 	0.056604 	4929 	0.056128
37.75 	0.057692 	4940 	0.056131
37.79 	0.058824 	4930 	0.057398
37.83 	0.054472 	4920 	0.053638
37.87 	0.058919 	4939 	0.057832
37.91 	0.056998 	4930 	0.056166
37.95 	0.053444 	4921 	0.052730
37.99 	0.053950 	4912 	0.053115
38.03 	0.055816 	4909 	0.055339
38.07 	0.055205 	4909 	0.054727
38.11 	0.057953 	4935 	0.056885
38.15 	0.058560 	4918 	0.057250
38.19 	0.056795 	4930 	0.055963
38.23 	0.058931 	4938 	0.057744
38.27 	0.057404 	4930 	0.056334
38.31 	0.060280 	4927 	0.058972
38.35 	0.054789 	4928 	0.054076
38.39 	0.060501 	4909 	0.059904
38.43 	0.061229 	4916 	0.060017
38.47 	0.063990 	4907 	0.062438
38.51 	0.065896 	4932 	0.064946
38.55 	0.071110 	4936 	0.069093
38.59 	0.066816 	4924 	0.065101
38.63 	0.072096 	4924 	0.070192
38.67 	0.076767 	4937 	0.075106
38.71 	0.069862 	4924 	0.068196
38.75 	0.080982 	4927 	0.079199
38.79 	0.071342 	4934 	0.070154
38.83 	0.076032 	4919 	0.074484
38.87 	0.070658 	4911 	0.069684
38.91 	0.064858 	4903 	0.063544
38.95 	0.055714 	4918 	0.054999
38.99 	0.057525 	4937 	0.056576
39.03 	0.050263 	4934 	0.049076
39.07 	0.053006 	4924 	0.052649
39.11 	0.062665 	4931 	0.061596
39.15 	0.045778 	4915 	0.045063
39.19 	0.047590 	4917 	0.046260
39.23 	0.051980 	4925 	0.051028
39.27 	0.051935 	4910 	0.051319
39.31 	0.044226 	4884 	0.043386
39.35 	0.040324 	4935 	0.039375
39.39 	0.047880 	4929 	0.047048
39.43 	0.048855 	4933 	0.048617
39.47 	0.048141 	4923 	0.047546
39.51 	0.046913 	4924 	0.046080
39.55 	0.045131 	4919 	0.044655
39.59 	0.046213 	4912 	0.045736
39.63 	0.044494 	4922 	0.043780
39.67 	0.051292 	4913 	0.050219
39.71 	0.040449 	4895 	0.040090
39.75 	0.041802 	4928 	0.041564
39.79 	0.046691 	4926 	0.045978
39.83 	0.042359 	4934 	0.042003
39.87 	0.040812 	4925 	0.040574
39.91 	0.040024 	4922 	0.040024
39.95 	0.046592 	4915 	0.045877
39.99 	0.043796 	4932 	0.043083
40.03 	0.045860 	4928 	0.045365
40.07 	0.040829 	4923 	0.040353
40.11 	0.048617 	4916 	0.047663
40.15 	0.045186 	4913 	0.044232
40.19 	0.040982 	4929 	0.040863
40.23 	0.047040 	4932 	0.046802
40.27 	0.042131 	4937 	0.041162
40.31 	0.045556 	4939 	0.044963
40.35 	0.040049 	4919 	0.039334
40.39 	0.040154 	4931 	0.039679
40.43 	0.044900 	4922 	0.044186
40.47 	0.039650 	4918 	0.039531
40.51 	0.036367 	4922 	0.036248
40.55 	0.040954 	4908 	0.040595
40.59 	0.044967 	4937 	0.044235
40.63 	0.046653 	4930 	0.046178
40.67 	0.041565 	4932 	0.041209
40.71 	0.040957 	4932 	0.040244
40.75 	0.038937 	4931 	0.038343
40.79 	0.042039 	4924 	0.041306
40.83 	0.045455 	4928 	0.044860
40.87 	0.037541 	4928 	0.037184
40.91 	0.046923 	4923 	0.046447
40.95 	0.038469 	4913 	0.037873
40.99 	0.044882 	4924 	0.044406
41.03 	0.040367 	4905 	0.039889
41.07 	0.043408 	4930 	0.042932
41.11 	0.042958 	4935 	0.042484
41.15 	0.040478 	4941 	0.040241
41.19 	0.044422 	4930 	0.043709
41.23 	0.044138 	4939 	0.043308
41.27 	0.048672 	4931 	0.047959
41.31 	0.043584 	4933 	0.042990
41.35 	0.044147 	4938 	0.043554
41.39 	0.040746 	4933 	0.040034
41.43 	0.038142 	4929 	0.037785
41.47 	0.041819 	4926 	0.041343
41.51 	0.040081 	4940 	0.039132
41.55 	0.042148 	4935 	0.041317
41.59 	0.038719 	4933 	0.038244
41.63 	0.037667 	4938 	0.037193
41.67 	0.039676 	4940 	0.039182
41.71 	0.041346 	4934 	0.040871
41.75 	0.044025 	4929 	0.043550
41.79 	0.038633 	4944 	0.037803
41.83 	0.041193 	4928 	0.040342
41.87 	0.042553 	4935 	0.042078
41.91 	0.037885 	4936 	0.037410
41.95 	0.048063 	4931 	0.047331
41.99 	0.037920 	4905 	0.037920
42.03 	0.040089 	4939 	0.039852
42.07 	0.043144 	4937 	0.042076
42.11 	0.041456 	4945 	0.041101
42.15 	0.037262 	4938 	0.036906
42.19 	0.042991 	4908 	0.042633
42.23 	0.043336 	4892 	0.042737
42.27 	0.039188 	4874 	0.038707
42.31 	0.042225 	4855 	0.041239
42.35 	0.041339 	4838 	0.040613
42.39 	0.039134 	4804 	0.038524
42.43 	0.043406 	4792 	0.042794
42.47 	0.033158 	4765 	0.032790
42.51 	0.039848 	4743 	0.039087
42.55 	0.032923 	4708 	0.032798
42.59 	0.039332 	4729 	0.038960
42.63 	0.037588 	4709 	0.037214
42.67 	0.040564 	4684 	0.039813
42.71 	0.040103 	4663 	0.039475
42.75 	0.042235 	4617 	0.041855
42.79 	0.039284 	4582 	0.038773
42.83 	0.037478 	4536 	0.036961
42.87 	0.040676 	4499 	0.040546
42.91 	0.043312 	4456 	0.042392
42.95 	0.035100 	4416 	0.034702
42.99 	0.043330 	4385 	0.042795
43.03 	0.038772 	4333 	0.038367
43.07 	0.039339 	4296 	0.038793
43.11 	0.045123 	4255 	0.044435
43.15 	0.041607 	4206 	0.041329
43.19 	0.041488 	4194 	0.040929
43.23 	0.039239 	4154 	0.038534
43.27 	0.046285 	4105 	0.046000
43.31 	0.037019 	4079 	0.036157
43.35 	0.037946 	4032 	0.037365
43.39 	0.042229 	4002 	0.041936
43.43 	0.035859 	3960 	0.035711
43.47 	0.033665 	3921 	0.033665
43.51 	0.042817 	3877 	0.042212
43.55 	0.039474 	2964 	0.038683
43.59 	0.038373 	1746 	0.038038
43.63 	0.027972 	1001 	0.027972
43.67 	0.035857 	502 	0.035857
43.71 	0.046025 	239 	0.043574
43.75 	0.000000 	16 	0.000000

File: 25SC_s1_0013.002.dat
#F C:\frames\spec\25SC_s1_0013.002
#C title =s:13 frm:2 25SC_s1
#C wavelength =0.15406

#S 1  fr_average C:\frames\spec\25SC_s1_0013.002 C:\win32app\speccom\mask.axs chi 0 180 0 360 0.02
#C 2 theta =0.000000 to 180 deg
#C   q   =0.000000 to 81.568 nm^-1
#C  chi  =0.000000 to 360 deg
#C collumns:
#C  1 position (2theta or chi in degrees)
#C  2 average intensity (sum of all counts in the region divided with number of pixels)
#C  3 Number of pixels in region)
#C  4 error (sum of sqrt(intensity) for all pixels divided by number)
#N 4
#L TTh  Int  N_pix  Err
32.99 	0.098361 	61 	0.098361
33.03 	0.055356 	1391 	0.054935
33.07 	0.060000 	2050 	0.058857
33.11 	0.062040 	2579 	0.060412
33.15 	0.060020 	2999 	0.059239
33.19 	0.055955 	3342 	0.055429
33.23 	0.053080 	3523 	0.052415
33.27 	0.055096 	3630 	0.054128
33.31 	0.056011 	3660 	0.055051
33.35 	0.054683 	3694 	0.054049
33.39 	0.055779 	3729 	0.054994
33.43 	0.060356 	3761 	0.058748
33.47 	0.056082 	3798 	0.055311
33.51 	0.055046 	3815 	0.054432
33.55 	0.069997 	3843 	0.067533
33.59 	0.055928 	3880 	0.054569
33.63 	0.058433 	3919 	0.056914
33.67 	0.058422 	3954 	0.057089
33.71 	0.062138 	3975 	0.060665
33.75 	0.061015 	3999 	0.059990
33.79 	0.058649 	4041 	0.057924
33.83 	0.062222 	4050 	0.060631
33.87 	0.064218 	4111 	0.062200
33.91 	0.061461 	4149 	0.060755
33.95 	0.063860 	4181 	0.062739
33.99 	0.054524 	4200 	0.053826
34.03 	0.060320 	4244 	0.059492
34.07 	0.068182 	4268 	0.066672
34.11 	0.056020 	4302 	0.055067
34.15 	0.062110 	4331 	0.061164
34.19 	0.063503 	4362 	0.062138
34.23 	0.057364 	4393 	0.055897
34.27 	0.052917 	4422 	0.051990
34.31 	0.060117 	4458 	0.059460
34.35 	0.057092 	4484 	0.056439
34.39 	0.051755 	4502 	0.050584
34.43 	0.060366 	4539 	0.059333
34.47 	0.052047 	4592 	0.051027
34.51 	0.058402 	4606 	0.057512
34.55 	0.050183 	4643 	0.048543
34.59 	0.056471 	4675 	0.055593
34.63 	0.059448 	4710 	0.058329
34.67 	0.057794 	4741 	0.057299
34.71 	0.053084 	4766 	0.052224
34.75 	0.058236 	4808 	0.057505
34.79 	0.054104 	4824 	0.053740
34.83 	0.056972 	4862 	0.056370
34.87 	0.060394 	4868 	0.059311
34.91 	0.059812 	4882 	0.058442
34.95 	0.056237 	4890 	0.055039
34.99 	0.062079 	4897 	0.061002
35.03 	0.057657 	4943 	0.056453
35.07 	0.050000 	4940 	0.048577
35.11 	0.057004 	4947 	0.055465
35.15 	0.056917 	4937 	0.055731
35.19 	0.064549 	4942 	0.063245
35.23 	0.063498 	4945 	0.062906
35.27 	0.059822 	4948 	0.059112
35.31 	0.049666 	4933 	0.049309
35.35 	0.060299 	4942 	0.058996
35.39 	0.060870 	4945 	0.058955
35.43 	0.058180 	4933 	0.056992
35.47 	0.053133 	4931 	0.052401
35.51 	0.063743 	4926 	0.062792
35.55 	0.053792 	4945 	0.053318
35.59 	0.055005 	4945 	0.054057
35.63 	0.057253 	4943 	0.056068
35.67 	0.055241 	4942 	0.054767
35.71 	0.056309 	4937 	0.055242
35.75 	0.064490 	4931 	0.062926
35.79 	0.053528 	4932 	0.052459
35.83 	0.059644 	4946 	0.058559
35.87 	0.057079 	4923 	0.055413
35.91 	0.055815 	4927 	0.054864
35.95 	0.053895 	4917 	0.052822
35.99 	0.060336 	4939 	0.059387
36.03 	0.055230 	4943 	0.054144
36.07 	0.056692 	4939 	0.055980
36.11 	0.063502 	4929 	0.062056
36.15 	0.052845 	4939 	0.052014
36.19 	0.056680 	4940 	0.054526
36.23 	0.062411 	4935 	0.060987
36.27 	0.061523 	4925 	0.060452
36.31 	0.055601 	4928 	0.055125
36.35 	0.057415 	4929 	0.056227
36.39 	0.070514 	4921 	0.069086
36.43 	0.056818 	4928 	0.055392
36.47 	0.053485 	4936 	0.052891
36.51 	0.055950 	4933 	0.054980
36.55 	0.060280 	4927 	0.058972
36.59 	0.066208 	4939 	0.064666
36.63 	0.053539 	4931 	0.052945
36.67 	0.056998 	4930 	0.056404
36.71 	0.054867 	4921 	0.053776
36.75 	0.054814 	4944 	0.054221
36.79 	0.052022 	4921 	0.051427
36.83 	0.055137 	4915 	0.054422
36.87 	0.055421 	4944 	0.054591
36.91 	0.057478 	4941 	0.056648
36.95 	0.054125 	4933 	0.053769
36.99 	0.054306 	4935 	0.053337
37.03 	0.058083 	4924 	0.057607
37.07 	0.058967 	4935 	0.057760
37.11 	0.062006 	4935 	0.061175
37.15 	0.058464 	4909 	0.057271
37.19 	0.057868 	4925 	0.057035
37.23 	0.053884 	4918 	0.053526
37.27 	0.055987 	4894 	0.055029
37.31 	0.056940 	4935 	0.056465
37.35 	0.055488 	4938 	0.054401
37.39 	0.056986 	4931 	0.056036
37.43 	0.056367 	4932 	0.055535
37.47 	0.053561 	4929 	0.052828
37.51 	0.052706 	4933 	0.052588
37.55 	0.053347 	4930 	0.052753
37.59 	0.050865 	4915 	0.049792
37.63 	0.056719 	4919 	0.055647
37.67 	0.055057 	4904 	0.054460
37.71 	0.053358 	4929 	0.052645
37.75 	0.055870 	4940 	0.055752
37.79 	0.056592 	4930 	0.055761
37.83 	0.054878 	4920 	0.053806
37.87 	0.058109 	4939 	0.056310
37.91 	0.050304 	4930 	0.049829
37.95 	0.049583 	4921 	0.048592
37.99 	0.054764 	4912 	0.054048
38.03 	0.046242 	4909 	0.046003
38.07 	0.053779 	4909 	0.052585
38.11 	0.052482 	4935 	0.051651
38.15 	0.052054 	4918 	0.051815
38.19 	0.049493 	4930 	0.049018
38.23 	0.059336 	4938 	0.058149
38.27 	0.051724 	4930 	0.051368
38.31 	0.052567 	4927 	0.051616
38.35 	0.056209 	4928 	0.055734
38.39 	0.053168 	4909 	0.052332
38.43 	0.058584 	4916 	0.057273
38.47 	0.057877 	4907 	0.056086
38.51 	0.059611 	4932 	0.058185
38.55 	0.065640 	4936 	0.064790
38.59 	0.064175 	4924 	0.063700
38.63 	0.064988 	4924 	0.063422
38.67 	0.060968 	4937 	0.059900
38.71 	0.055240 	4924 	0.054268
38.75 	0.052162 	4927 	0.051310
38.79 	0.054114 	4934 	0.053639
38.83 	0.057532 	4919 	0.056560
38.87 	0.056200 	4911 	0.055604
38.91 	0.055272 	4903 	0.053958
38.95 	0.045954 	4918 	0.045358
38.99 	0.048410 	4937 	0.047935
39.03 	0.043778 	4934 	0.043540
39.07 	0.049553 	4924 	0.048701
39.11 	0.051308 	4931 	0.050120
39.15 	0.049034 	4915 	0.048438
39.19 	0.048607 	4917 	0.047892
39.23 	0.048934 	4925 	0.048101
39.27 	0.043788 	4910 	0.043192
39.31 	0.047093 	4884 	0.046373
39.35 	0.044174 	4935 	0.043106
39.39 	0.048894 	4929 	0.048300
39.43 	0.050882 	4933 	0.050288
39.47 	0.043673 	4923 	0.043078
39.51 	0.045898 	4924 	0.045422
39.55 	0.047571 	4919 	0.046380
39.59 	0.050692 	4912 	0.049977
39.63 	0.042462 	4922 	0.042105
39.67 	0.041726 	4913 	0.041130
39.71 	0.047600 	4895 	0.046762
39.75 	0.045657 	4928 	0.045063
39.79 	0.044864 	4926 	0.044269
39.83 	0.050872 	4934 	0.050397
39.87 	0.046091 	4925 	0.045735
39.91 	0.048354 	4922 	0.047621
39.95 	0.039674 	4915 	0.039555
39.99 	0.048459 	4932 	0.047509
40.03 	0.045455 	4928 	0.045098
40.07 	0.042657 	4923 	0.042300
40.11 	0.045972 	4916 	0.045138
40.15 	0.041930 	4913 	0.041691
40.19 	0.043214 	4929 	0.042501
40.23 	0.043593 	4932 	0.043118
40.27 	0.047195 	4937 	0.046245
40.31 	0.046568 	4939 	0.045857
40.35 	0.043911 	4919 	0.043078
40.39 	0.042993 	4931 	0.042399
40.43 	0.043885 	4922 	0.043647
40.47 	0.045750 	4918 	0.044797
40.51 	0.044088 	4922 	0.043969
40.55 	0.043602 	4908 	0.043244
40.59 	0.040105 	4937 	0.039393
40.63 	0.047465 	4930 	0.046870
40.67 	0.047040 	4932 	0.046565
40.71 	0.042376 	4932 	0.041664
40.75 	0.038329 	4931 	0.038329
40.79 	0.041024 	4924 	0.040667
40.83 	0.039367 	4928 	0.038773
40.87 	0.041599 	4928 	0.041124
40.91 	0.043063 	4923 	0.042825
40.95 	0.040912 	4913 	0.040196
40.99 	0.045898 	4924 	0.045422
41.03 	0.045056 	4905 	0.044340
41.07 	0.041988 	4930 	0.041275
41.11 	0.039919 	4935 	0.039800
41.15 	0.038859 	4941 	0.038503
41.19 	0.046653 	4930 	0.046059
41.23 	0.039482 	4939 	0.038889
41.27 	0.038937 	4931 	0.038462
41.31 	0.043381 	4933 	0.042906
41.35 	0.043742 	4938 	0.043268
41.39 	0.040341 	4933 	0.040341
41.43 	0.038953 	4929 	0.038121
41.47 	0.036135 	4926 	0.035540
41.51 	0.042713 	4940 	0.042475
41.55 	0.041945 	4935 	0.041589
41.59 	0.041760 	4933 	0.041403
41.63 	0.044552 	4938 	0.044078
41.67 	0.043522 	4940 	0.042692
41.71 	0.046210 	4934 	0.045854
41.75 	0.041591 	4929 	0.041234
41.79 	0.043689 	4944 	0.043334
41.83 	0.039773 	4928 	0.039178
41.87 	0.042351 	4935 	0.041757
41.91 	0.045178 	4936 	0.044941
41.95 	0.041168 	4931 	0.040812
41.99 	0.040367 	4905 	0.039889
42.03 	0.040696 	4939 	0.040321
42.07 	0.038080 	4937 	0.037368
42.11 	0.039838 	4945 	0.039246
42.15 	0.040502 	4938 	0.039672
42.19 	0.042176 	4908 	0.041579
42.23 	0.042723 	4892 	0.042483
42.27 	0.038777 	4874 	0.038176
42.31 	0.043872 	4855 	0.043752
42.35 	0.043200 	4838 	0.042715
42.39 	0.036428 	4804 	0.035940
42.43 	0.041110 	4792 	0.040621
42.47 	0.039035 	4765 	0.038666
42.51 	0.037318 	4743 	0.037071
42.55 	0.038870 	4708 	0.038497
42.59 	0.043138 	4729 	0.042766
42.63 	0.039924 	4709 	0.039675
42.67 	0.039496 	4684 	0.038871
42.71 	0.037529 	4663 	0.036776
42.75 	0.040069 	4617 	0.039562
42.79 	0.036229 	4582 	0.035717
42.83 	0.041005 	4536 	0.040747
42.87 	0.041787 	4499 	0.041266
42.91 	0.037478 	4456 	0.036952
42.95 	0.040308 	4416 	0.039910
42.99 	0.037400 	4385 	0.037133
43.03 	0.033003 	4333 	0.032732
43.07 	0.040503 	4296 	0.039799
43.11 	0.039483 	4255 	0.039208
43.15 	0.038041 	4206 	0.037762
43.19 	0.043872 	4194 	0.043733
43.23 	0.039239 	4154 	0.039098
43.27 	0.044580 	4105 	0.044009
43.31 	0.038490 	4079 	0.037748
43.35 	0.039187 	4032 	0.038896
43.39 	0.033983 	4002 	0.033837
43.43 	0.035859 	3960 	0.035563
43.47 	0.039276 	3921 	0.039126
43.51 	0.034563 	3877 	0.034110
43.55 	0.037449 	2964 	0.037054
43.59 	0.033219 	1746 	0.033219
43.63 	0.030969 	1001 	0.030969
43.67 	0.039841 	502 	0.038674
43.71 	0.062762 	239 	0.062762
43.75 	0.000000 	16 	0.000000