Folder: Bessy-II-KMC-II-insitu-sin2psi/Example_Data (part 112)

File: 25SC_s1_0045.001.dat
#F C:\frames\spec\25SC_s1_0045.001
#C title =s:45 frm:1 25SC_s1
#C wavelength =0.15406

#S 1  fr_average C:\frames\spec\25SC_s1_0045.001 C:\win32app\speccom\mask.axs chi 0 180 0 360 0.02
#C 2 theta =0.000000 to 180 deg
#C   q   =0.000000 to 81.568 nm^-1
#C  chi  =0.000000 to 360 deg
#C collumns:
#C  1 position (2theta or chi in degrees)
#C  2 average intensity (sum of all counts in the region divided with number of pixels)
#C  3 Number of pixels in region)
#C  4 error (sum of sqrt(intensity) for all pixels divided by number)
#N 4
#L TTh  Int  N_pix  Err
32.99 	0.098361 	61 	0.088758
33.03 	0.062545 	1391 	0.061282
33.07 	0.046829 	2050 	0.046258
33.11 	0.064754 	2579 	0.063618
33.15 	0.069023 	2999 	0.067265
33.19 	0.066427 	3342 	0.065376
33.23 	0.054215 	3523 	0.053550
33.27 	0.055372 	3630 	0.054726
33.31 	0.052459 	3660 	0.051979
33.35 	0.061992 	3694 	0.061041
33.39 	0.059265 	3729 	0.058166
33.43 	0.057166 	3761 	0.056387
33.47 	0.055556 	3798 	0.054939
33.51 	0.059502 	3815 	0.058888
33.55 	0.058028 	3843 	0.057418
33.59 	0.064433 	3880 	0.062923
33.63 	0.055371 	3919 	0.054474
33.67 	0.059939 	3954 	0.058902
33.71 	0.058616 	3975 	0.057437
33.75 	0.057514 	3999 	0.056782
33.79 	0.057412 	4041 	0.056832
33.83 	0.059012 	4050 	0.058578
33.87 	0.059596 	4111 	0.058599
33.91 	0.060255 	4149 	0.059267
33.95 	0.054293 	4181 	0.052729
33.99 	0.063095 	4200 	0.061840
34.03 	0.053252 	4244 	0.052562
34.07 	0.058810 	4268 	0.057986
34.11 	0.061832 	4302 	0.060742
34.15 	0.060956 	4331 	0.060144
34.19 	0.058230 	4362 	0.057537
34.23 	0.056226 	4393 	0.055026
34.27 	0.060832 	4422 	0.059772
34.31 	0.055406 	4458 	0.054355
34.35 	0.059099 	4484 	0.058185
34.39 	0.057974 	4502 	0.057063
34.43 	0.055959 	4539 	0.055314
34.47 	0.058580 	4592 	0.057283
34.51 	0.057968 	4606 	0.056930
34.55 	0.059229 	4643 	0.057715
34.59 	0.052620 	4675 	0.051493
34.63 	0.054777 	4710 	0.054031
34.67 	0.064332 	4741 	0.063468
34.71 	0.058540 	4766 	0.057065
34.75 	0.056156 	4808 	0.055060
34.79 	0.056799 	4824 	0.055706
34.83 	0.050185 	4862 	0.049583
34.87 	0.055259 	4868 	0.054416
34.91 	0.061860 	4882 	0.060900
34.95 	0.055828 	4890 	0.054630
34.99 	0.053706 	4897 	0.053228
35.03 	0.053004 	4943 	0.052175
35.07 	0.051822 	4940 	0.051229
35.11 	0.055185 	4947 	0.054593
35.15 	0.056715 	4937 	0.055765
35.19 	0.056050 	4942 	0.054509
35.23 	0.054803 	4945 	0.054211
35.27 	0.058812 	4948 	0.057628
35.31 	0.056963 	4933 	0.056013
35.35 	0.053824 	4942 	0.053113
35.39 	0.060465 	4945 	0.059399
35.43 	0.058382 	4933 	0.056443
35.47 	0.054350 	4931 	0.053875
35.51 	0.053593 	4926 	0.052404
35.55 	0.058241 	4945 	0.057530
35.59 	0.057634 	4945 	0.057160
35.63 	0.056848 	4943 	0.056019
35.67 	0.061311 	4942 	0.059770
35.71 	0.052664 	4937 	0.051833
35.75 	0.064287 	4931 	0.063218
35.79 	0.060219 	4932 	0.059269
35.83 	0.057016 	4946 	0.056068
35.87 	0.052204 	4923 	0.051490
35.91 	0.058047 	4927 	0.057453
35.95 	0.062233 	4917 	0.061518
35.99 	0.052845 	4939 	0.052252
36.03 	0.059680 	4943 	0.058120
36.07 	0.054060 	4939 	0.053704
36.11 	0.059241 	4929 	0.058885
36.15 	0.063171 	4939 	0.062459
36.19 	0.059919 	4940 	0.059208
36.23 	0.055319 	4935 	0.054488
36.27 	0.063147 	4925 	0.061819
36.31 	0.057021 	4928 	0.056189
36.35 	0.058024 	4929 	0.056835
36.39 	0.056086 	4921 	0.054738
36.43 	0.052963 	4928 	0.051378
36.47 	0.052674 	4936 	0.052318
36.51 	0.057166 	4933 	0.056572
36.55 	0.057642 	4927 	0.056928
36.59 	0.057097 	4939 	0.056504
36.63 	0.061448 	4931 	0.060260
36.67 	0.062677 	4930 	0.061846
36.71 	0.056086 	4921 	0.055610
36.75 	0.063714 	4944 	0.062410
36.79 	0.060557 	4921 	0.059485
36.83 	0.059817 	4915 	0.058486
36.87 	0.057848 	4944 	0.057019
36.91 	0.060312 	4941 	0.059719
36.95 	0.056355 	4933 	0.055524
36.99 	0.056535 	4935 	0.055803
37.03 	0.060520 	4924 	0.060163
37.07 	0.064235 	4935 	0.063167
37.11 	0.062006 	4935 	0.060700
37.15 	0.054390 	4909 	0.053555
37.19 	0.054213 	4925 	0.052905
37.23 	0.058357 	4918 	0.057762
37.27 	0.056804 	4894 	0.055707
37.31 	0.050253 	4935 	0.049660
37.35 	0.056298 	4938 	0.055349
37.39 	0.054147 	4931 	0.052840
37.43 	0.053528 	4932 	0.052558
37.47 	0.055589 	4929 	0.053926
37.51 	0.050071 	4933 	0.049715
37.55 	0.051724 	4930 	0.050873
37.59 	0.055137 	4915 	0.054541
37.63 	0.054483 	4919 	0.053173
37.67 	0.057504 	4904 	0.056548
37.71 	0.055995 	4929 	0.055044
37.75 	0.053644 	4940 	0.052201
37.79 	0.054361 	4930 	0.053648
37.83 	0.052846 	4920 	0.052250
37.87 	0.052642 	4939 	0.051931
37.91 	0.054767 	4930 	0.053816
37.95 	0.059947 	4921 	0.059094
37.99 	0.058836 	4912 	0.058120
38.03 	0.048279 	4909 	0.047682
38.07 	0.054594 	4909 	0.053997
38.11 	0.061803 	4935 	0.061091
38.15 	0.062017 	4918 	0.061064
38.19 	0.059838 	4930 	0.058155
38.23 	0.059336 	4938 	0.058268
38.27 	0.059026 	4930 	0.058432
38.31 	0.065354 	4927 	0.063789
38.35 	0.067573 	4928 	0.066147
38.39 	0.075168 	4909 	0.073358
38.43 	0.076282 	4916 	0.074971
38.47 	0.076218 	4907 	0.073949
38.51 	0.075831 	4932 	0.073575
38.55 	0.070502 	4936 	0.069197
38.59 	0.067628 	4924 	0.066914
38.63 	0.064175 	4924 	0.063204
38.67 	0.059753 	4937 	0.058448
38.71 	0.063160 	4924 	0.062089
38.75 	0.056221 	4927 	0.055626
38.79 	0.051480 	4934 	0.050411
38.83 	0.053669 	4919 	0.052955
38.87 	0.047037 	4911 	0.046322
38.91 	0.043443 	4903 	0.043084
38.95 	0.049004 	4918 	0.048289
38.99 	0.043954 	4937 	0.043361
39.03 	0.047426 	4934 	0.046595
39.07 	0.045695 	4924 	0.044981
39.11 	0.052930 	4931 	0.051861
39.15 	0.048423 	4915 	0.047827
39.19 	0.045149 	4917 	0.045030
39.23 	0.048731 	4925 	0.047542
39.27 	0.042974 	4910 	0.042616
39.31 	0.052007 	4884 	0.050687
39.35 	0.041337 	4935 	0.041100
39.39 	0.043822 	4929 	0.043466
39.43 	0.044192 	4933 	0.043955
39.47 	0.049360 	4923 	0.048527
39.51 	0.040008 	4924 	0.039651
39.55 	0.041878 	4919 	0.041283
39.59 	0.041735 	4912 	0.041615
39.63 	0.041040 	4922 	0.040207
39.67 	0.040708 	4913 	0.039993
39.71 	0.042697 	4895 	0.042457
39.75 	0.042005 	4928 	0.041767
39.79 	0.045270 	4926 	0.044299
39.83 	0.047831 	4934 	0.046644
39.87 	0.045076 	4925 	0.044838
39.91 	0.047338 	4922 	0.046862
39.95 	0.043540 	4915 	0.043302
39.99 	0.045418 	4932 	0.045061
40.03 	0.047687 	4928 	0.046855
40.07 	0.041032 	4923 	0.040318
40.11 	0.045159 	4916 	0.045040
40.15 	0.043151 	4913 	0.042197
40.19 	0.039765 	4929 	0.039289
40.23 	0.045012 	4932 	0.044893
40.27 	0.039093 	4937 	0.038499
40.31 	0.040696 	4939 	0.040222
40.35 	0.042692 	4919 	0.042334
40.39 	0.040560 	4931 	0.039966
40.43 	0.038399 	4922 	0.038399
40.47 	0.040057 	4918 	0.039938
40.51 	0.036164 	4922 	0.035926
40.55 	0.041157 	4908 	0.040322
40.59 	0.042739 	4937 	0.042145
40.63 	0.042799 	4930 	0.042086
40.67 	0.039132 	4932 	0.038538
40.71 	0.041768 	4932 	0.041649
40.75 	0.040965 	4931 	0.040609
40.79 	0.049147 	4924 	0.047957
40.83 	0.039164 	4928 	0.038926
40.87 	0.044846 	4928 	0.044370
40.91 	0.044688 	4923 	0.044450
40.95 	0.041726 	4913 	0.041607
40.99 	0.047116 	4924 	0.046759
41.03 	0.046687 	4905 	0.046090
41.07 	0.040568 	4930 	0.040211
41.11 	0.041945 	4935 	0.041470
41.15 	0.041894 	4941 	0.041420
41.19 	0.038540 	4930 	0.038064
41.23 	0.040089 	4939 	0.039496
41.27 	0.043196 	4931 	0.042365
41.31 	0.044395 	4933 	0.043801
41.35 	0.038882 	4938 	0.038645
41.39 	0.039935 	4933 	0.039698
41.43 	0.038547 	4929 	0.038191
41.47 	0.042834 	4926 	0.042715
41.51 	0.045142 	4940 	0.044074
41.55 	0.039919 	4935 	0.039088
41.59 	0.033043 	4933 	0.032330
41.63 	0.040705 	4938 	0.040112
41.67 	0.041700 	4940 	0.041108
41.71 	0.042359 	4934 	0.042003
41.75 	0.038344 	4929 	0.037988
41.79 	0.040049 	4944 	0.039930
41.83 	0.038961 	4928 	0.038604
41.87 	0.036879 	4935 	0.036523
41.91 	0.043152 	4936 	0.042559
41.95 	0.037721 	4931 	0.037245
41.99 	0.044241 	4905 	0.043285
42.03 	0.037659 	4939 	0.037541
42.07 	0.037877 	4937 	0.037165
42.11 	0.033569 	4945 	0.033332
42.15 	0.037465 	4938 	0.037109
42.19 	0.033619 	4908 	0.033380
42.23 	0.040679 	4892 	0.039960
42.27 	0.036520 	4874 	0.036040
42.31 	0.040577 	4855 	0.039973
42.35 	0.038032 	4838 	0.038032
42.39 	0.039967 	4804 	0.039479
42.43 	0.038815 	4792 	0.038692
42.47 	0.039035 	4765 	0.038912
42.51 	0.034999 	4743 	0.034628
42.55 	0.039295 	4708 	0.038922
42.59 	0.039120 	4729 	0.038749
42.63 	0.034827 	4709 	0.034703
42.67 	0.037148 	4684 	0.036773
42.71 	0.039460 	4663 	0.038831
42.75 	0.036604 	4617 	0.036350
42.79 	0.042776 	4582 	0.042776
42.83 	0.039242 	4536 	0.039112
42.87 	0.039120 	4499 	0.038990
42.91 	0.041741 	4456 	0.041610
42.95 	0.038949 	4416 	0.038551
42.99 	0.034436 	4385 	0.033768
43.03 	0.038772 	4333 	0.038502
43.07 	0.037477 	4296 	0.037068
43.11 	0.033137 	4255 	0.033000
43.15 	0.036614 	4206 	0.036197
43.19 	0.040057 	4194 	0.039638
43.23 	0.036351 	4154 	0.035927
43.27 	0.034105 	4105 	0.033962
43.31 	0.040696 	4079 	0.039691
43.35 	0.041667 	4032 	0.040940
43.39 	0.035982 	4002 	0.034957
43.43 	0.044444 	3960 	0.043705
43.47 	0.037745 	3921 	0.037745
43.51 	0.034821 	3877 	0.034216
43.55 	0.035425 	2964 	0.035030
43.59 	0.030928 	1746 	0.030928
43.63 	0.034965 	1001 	0.034965
43.67 	0.025896 	502 	0.025896
43.71 	0.020921 	239 	0.020921
43.75 	0.000000 	16 	0.000000

File: 25SC_s1_0045.002.dat
#F C:\frames\spec\25SC_s1_0045.002
#C title =s:45 frm:2 25SC_s1
#C wavelength =0.15406

#S 1  fr_average C:\frames\spec\25SC_s1_0045.002 C:\win32app\speccom\mask.axs chi 0 180 0 360 0.02
#C 2 theta =0.000000 to 180 deg
#C   q   =0.000000 to 81.568 nm^-1
#C  chi  =0.000000 to 360 deg
#C collumns:
#C  1 position (2theta or chi in degrees)
#C  2 average intensity (sum of all counts in the region divided with number of pixels)
#C  3 Number of pixels in region)
#C  4 error (sum of sqrt(intensity) for all pixels divided by number)
#N 4
#L TTh  Int  N_pix  Err
32.99 	0.081967 	61 	0.072364
33.03 	0.070453 	1391 	0.068768
33.07 	0.055610 	2050 	0.055038
33.11 	0.055060 	2579 	0.055060
33.15 	0.060687 	2999 	0.059710
33.19 	0.053262 	3342 	0.053086
33.23 	0.056486 	3523 	0.055987
33.27 	0.061157 	3630 	0.059705
33.31 	0.055464 	3660 	0.054664
33.35 	0.056308 	3694 	0.055673
33.39 	0.055511 	3729 	0.054700
33.43 	0.061686 	3761 	0.060284
33.47 	0.059768 	3798 	0.059306
33.51 	0.060026 	3815 	0.058951
33.55 	0.064273 	3843 	0.063511
33.59 	0.052835 	3880 	0.052231
33.63 	0.057413 	3919 	0.056366
33.67 	0.061710 	3954 	0.060524
33.71 	0.053836 	3975 	0.052952
33.75 	0.060265 	3999 	0.059386
33.79 	0.054937 	4041 	0.054019
33.83 	0.055802 	4050 	0.055513
33.87 	0.063245 	4111 	0.062105
33.91 	0.055435 	4149 	0.054306
33.95 	0.058359 	4181 	0.057659
33.99 	0.056905 	4200 	0.056207
34.03 	0.060085 	4244 	0.059234
34.07 	0.056467 	4268 	0.056055
34.11 	0.057183 	4302 	0.056230
34.15 	0.059340 	4331 	0.057852
34.19 	0.057772 	4362 	0.057637
34.23 	0.061234 	4393 	0.059900
34.27 	0.056083 	4422 	0.055156
34.31 	0.063930 	4458 	0.063010
34.35 	0.056646 	4484 	0.055862
34.39 	0.053532 	4502 	0.053011
34.43 	0.056180 	4539 	0.055276
34.47 	0.048998 	4592 	0.047723
34.51 	0.047112 	4606 	0.046349
34.55 	0.056429 	4643 	0.054989
34.59 	0.056257 	4675 	0.055505
34.63 	0.056900 	4710 	0.055636
34.67 	0.059692 	4741 	0.058065
34.71 	0.053294 	4766 	0.053048
34.75 	0.054493 	4808 	0.052909
34.79 	0.064469 	4824 	0.063114
34.83 	0.050185 	4862 	0.049583
34.87 	0.062654 	4868 	0.061932
34.91 	0.057968 	4882 	0.056768
34.95 	0.061350 	4890 	0.060032
34.99 	0.062896 	4897 	0.061819
35.03 	0.054420 	4943 	0.053591
35.07 	0.054858 	4940 	0.053791
35.11 	0.060643 	4947 	0.059084
35.15 	0.063399 	4937 	0.061955
35.19 	0.057669 	4942 	0.056721
35.23 	0.053387 	4945 	0.051966
35.27 	0.058407 	4948 	0.056731
35.31 	0.056558 	4933 	0.056083
35.35 	0.059085 	4942 	0.057900
35.39 	0.060667 	4945 	0.059009
35.43 	0.055950 	4933 	0.054743
35.47 	0.059014 	4931 	0.058044
35.51 	0.055623 	4926 	0.055148
35.55 	0.052983 	4945 	0.051917
35.59 	0.063094 	4945 	0.062620
35.63 	0.062917 	4943 	0.061851
35.67 	0.053622 	4942 	0.052773
35.71 	0.059348 	4937 	0.058399
35.75 	0.053944 	4931 	0.052875
35.79 	0.056772 	4932 	0.056059
35.83 	0.056207 	4946 	0.054648
35.87 	0.062970 	4923 	0.061542
35.91 	0.045870 	4927 	0.045037
35.95 	0.054708 	4917 	0.053874
35.99 	0.059729 	4939 	0.058780
36.03 	0.063120 	4943 	0.061322
36.07 	0.055072 	4939 	0.054360
36.11 	0.059038 	4929 	0.057375
36.15 	0.056287 	4939 	0.055456
36.19 	0.053239 	4940 	0.053120
36.23 	0.058967 	4935 	0.058373
36.27 	0.056447 	4925 	0.055376
36.31 	0.062297 	4928 	0.061227
36.35 	0.052140 	4929 	0.051427
36.39 	0.055070 	4921 	0.054594
36.43 	0.053369 	4928 	0.052655
36.47 	0.055713 	4936 	0.054645
36.51 	0.052909 	4933 	0.052553
36.55 	0.054394 	4927 	0.053681
36.59 	0.056084 	4939 	0.055116
36.63 	0.055364 	4931 	0.054770
36.67 	0.058215 	4930 	0.057621
36.71 	0.065027 	4921 	0.064670
36.75 	0.056837 	4944 	0.055889
36.79 	0.061370 	4921 	0.059703
36.83 	0.049237 	4915 	0.048383
36.87 	0.055218 	4944 	0.054488
36.91 	0.057073 	4941 	0.056106
36.95 	0.058382 	4933 	0.057532
36.99 	0.053495 	4935 	0.052427
37.03 	0.059708 	4924 	0.058518
37.07 	0.056535 	4935 	0.055467
37.11 	0.060790 	4935 	0.059821
37.15 	0.052149 	4909 	0.051175
37.19 	0.050558 	4925 	0.050083
37.23 	0.055307 	4918 	0.054473
37.27 	0.056191 	4894 	0.054735
37.31 	0.056130 	4935 	0.055061
37.35 	0.056906 	4938 	0.055957
37.39 	0.055364 	4931 	0.054532
37.43 	0.058800 	4932 	0.058087
37.47 	0.052343 	4929 	0.051749
37.51 	0.045408 	4933 	0.044815
37.55 	0.055172 	4930 	0.054440
37.59 	0.055137 	4915 	0.054422
37.63 	0.057532 	4919 	0.056937
37.67 	0.060971 	4904 	0.059378
37.71 	0.055995 	4929 	0.055044
37.75 	0.052024 	4940 	0.051669
37.79 	0.057201 	4930 	0.055993
37.83 	0.053049 	4920 	0.052315
37.87 	0.057299 	4939 	0.055994
37.91 	0.050913 	4930 	0.049705
37.95 	0.050193 	4921 	0.049122
37.99 	0.053135 	4912 	0.051943
38.03 	0.057853 	4909 	0.057018
38.07 	0.051131 	4909 	0.050534
38.11 	0.059372 	4935 	0.058660
38.15 	0.051240 	4918 	0.050526
38.19 	0.049290 	4930 	0.048221
38.23 	0.057513 	4938 	0.056801
38.27 	0.063286 	4930 	0.061227
38.31 	0.055815 	4927 	0.054864
38.35 	0.060471 	4928 	0.058906
38.39 	0.060705 	4909 	0.060108
38.43 	0.061025 	4916 	0.059576
38.47 	0.065621 	4907 	0.064546
38.51 	0.060827 	4932 	0.059877
38.55 	0.063817 	4936 	0.062867
38.59 	0.060926 	4924 	0.059974
38.63 	0.062551 	4924 	0.061718
38.67 	0.064614 	4937 	0.063546
38.71 	0.053818 	4924 	0.052747
38.75 	0.050741 	4927 	0.050027
38.79 	0.054722 	4934 	0.053634
38.83 	0.050213 	4919 	0.049003
38.87 	0.050906 	4911 	0.050310
38.91 	0.046502 	4903 	0.046024
38.95 	0.047174 	4918 	0.045983
38.99 	0.049220 	4937 	0.048390
39.03 	0.046210 	4934 	0.045379
39.07 	0.046710 	4924 	0.046234
39.11 	0.047860 	4931 	0.047148
39.15 	0.047609 	4915 	0.047133
39.19 	0.043116 	4917 	0.042401
39.23 	0.045685 	4925 	0.045328
39.27 	0.044399 	4910 	0.044161
39.31 	0.042588 	4884 	0.041849
39.35 	0.045998 	4935 	0.045286
39.39 	0.046054 	4929 	0.045579
39.43 	0.049260 	4933 	0.048785
39.47 	0.050782 	4923 	0.050068
39.51 	0.047929 	4924 	0.047334
39.55 	0.046757 	4919 	0.045904
39.59 	0.045603 	4912 	0.045006
39.63 	0.045510 	4922 	0.044558
39.67 	0.044576 	4913 	0.043622
39.71 	0.048621 	4895 	0.047783
39.75 	0.048904 	4928 	0.048290
39.79 	0.044255 	4926 	0.043541
39.83 	0.046413 	4934 	0.045463
39.87 	0.048934 	4925 	0.048458
39.91 	0.046526 	4922 	0.046050
39.95 	0.044761 	4915 	0.043807
39.99 	0.045823 	4932 	0.045229
40.03 	0.043831 	4928 	0.043237
40.07 	0.051391 	4923 	0.050677
40.11 	0.037836 	4916 	0.037597
40.15 	0.039691 	4913 	0.039094
40.19 	0.041591 	4929 	0.041353
40.23 	0.042376 	4932 	0.041782
40.27 	0.044967 	4937 	0.044255
40.31 	0.043126 	4939 	0.042632
40.35 	0.043505 	4919 	0.042790
40.39 	0.041777 	4931 	0.041301
40.43 	0.045916 	4922 	0.045083
40.47 	0.042090 	4918 	0.041733
40.51 	0.045104 	4922 	0.044727
40.55 	0.041157 	4908 	0.040919
40.59 	0.042333 	4937 	0.041503
40.63 	0.044422 	4930 	0.043828
40.67 	0.042782 	4932 	0.042069
40.71 	0.043796 	4932 	0.043202
40.75 	0.044616 	4931 	0.044022
40.79 	0.045695 	4924 	0.045338
40.83 	0.043831 	4928 	0.043593
40.87 	0.040381 	4928 	0.039787
40.91 	0.039610 	4923 	0.039372
40.95 	0.046611 	4913 	0.046373
40.99 	0.042648 	4924 	0.042291
41.03 	0.043629 	4905 	0.043151
41.07 	0.043813 	4930 	0.043695
41.11 	0.042148 	4935 	0.041673
41.15 	0.043109 	4941 	0.042634
41.19 	0.045030 	4930 	0.044436
41.23 	0.039887 	4939 	0.039294
41.27 	0.042385 	4931 	0.041553
41.31 	0.045408 	4933 	0.044933
41.35 	0.044350 	4938 	0.043994
41.39 	0.043179 	4933 	0.042466
41.43 	0.042605 	4929 	0.042486
41.47 	0.042225 	4926 	0.041868
41.51 	0.044534 	4940 	0.044179
41.55 	0.043364 	4935 	0.042770
41.59 	0.042976 	4933 	0.042263
41.63 	0.039287 	4938 	0.038931
41.67 	0.036842 	4940 	0.036486
41.71 	0.040738 	4934 	0.040382
41.75 	0.043417 	4929 	0.042941
41.79 	0.043487 	4944 	0.043013
41.83 	0.042614 	4928 	0.041900
41.87 	0.043161 	4935 	0.042449
41.91 	0.041734 	4936 	0.041259
41.95 	0.046441 	4931 	0.045847
41.99 	0.036086 	4905 	0.035608
42.03 	0.039077 	4939 	0.038840
42.07 	0.040308 	4937 	0.039477
42.11 	0.037209 	4945 	0.036854
42.15 	0.041920 	4938 	0.041208
42.19 	0.039935 	4908 	0.039696
42.23 	0.040474 	4892 	0.040115
42.27 	0.039188 	4874 	0.038466
42.31 	0.038311 	4855 	0.037346
42.35 	0.038446 	4838 	0.038203
42.39 	0.040383 	4804 	0.039895
42.43 	0.036728 	4792 	0.036361
42.47 	0.043232 	4765 	0.042740
42.51 	0.039427 	4743 	0.038912
42.55 	0.033772 	4708 	0.033275
42.59 	0.042504 	4729 	0.041884
42.63 	0.037375 	4709 	0.037002
42.67 	0.031810 	4684 	0.031685
42.71 	0.038387 	4663 	0.037885
42.75 	0.037470 	4617 	0.037216
42.79 	0.039939 	4582 	0.039300
42.83 	0.041446 	4536 	0.041188
42.87 	0.038008 	4499 	0.037878
42.91 	0.035682 	4456 	0.035419
42.95 	0.039855 	4416 	0.039457
42.99 	0.035348 	4385 	0.034680
43.03 	0.040619 	4333 	0.039943
43.07 	0.039804 	4296 	0.039100
43.11 	0.038308 	4255 	0.037482
43.15 	0.039705 	4206 	0.039427
43.19 	0.038150 	4194 	0.038010
43.23 	0.037073 	4154 	0.036509
43.27 	0.037515 	4105 	0.036802
43.31 	0.043638 	4079 	0.043638
43.35 	0.035466 	4032 	0.035030
43.39 	0.034983 	4002 	0.034543
43.43 	0.039899 	3960 	0.039603
43.47 	0.035960 	3921 	0.035661
43.51 	0.040495 	3877 	0.039740
43.55 	0.041835 	2964 	0.041045
43.59 	0.037228 	1746 	0.035550
43.63 	0.036963 	1001 	0.036378
43.67 	0.037849 	502 	0.036682
43.71 	0.008368 	239 	0.008368
43.75 	0.000000 	16 	0.000000