Folder: Bessy-II-KMC-II-insitu-sin2psi/Example_Data (part 24)

File: 25SC_s1_0010.000.dat
#F C:\frames\spec\25SC_s1_0010.000
#C title =s:10 frm:0 25SC_s1
#C wavelength =0.15406

#S 1  fr_average C:\frames\spec\25SC_s1_0010.000 C:\win32app\speccom\mask.axs chi 0 180 0 360 0.02
#C 2 theta =0.000000 to 180 deg
#C   q   =0.000000 to 81.568 nm^-1
#C  chi  =0.000000 to 360 deg
#C collumns:
#C  1 position (2theta or chi in degrees)
#C  2 average intensity (sum of all counts in the region divided with number of pixels)
#C  3 Number of pixels in region)
#C  4 error (sum of sqrt(intensity) for all pixels divided by number)
#N 4
#L TTh  Int  N_pix  Err
32.99 	0.065574 	61 	0.065574
33.03 	0.066139 	1391 	0.064455
33.07 	0.065366 	2050 	0.063937
33.11 	0.059325 	2579 	0.059325
33.15 	0.056019 	2999 	0.054619
33.19 	0.062537 	3342 	0.061486
33.23 	0.060176 	3523 	0.059511
33.27 	0.058678 	3630 	0.056580
33.31 	0.062295 	3660 	0.060535
33.35 	0.058202 	3694 	0.057568
33.39 	0.064092 	3729 	0.063464
33.43 	0.057166 	3761 	0.055452
33.47 	0.057135 	3798 	0.055593
33.51 	0.057667 	3815 	0.056899
33.55 	0.053864 	3843 	0.053407
33.59 	0.059278 	3880 	0.057920
33.63 	0.052054 	3919 	0.050983
33.67 	0.068285 	3954 	0.067841
33.71 	0.061384 	3975 	0.060647
33.75 	0.056514 	3999 	0.055782
33.79 	0.053205 	4041 	0.052480
33.83 	0.054568 	4050 	0.053700
33.87 	0.064948 	4111 	0.063665
33.91 	0.066763 	4149 	0.065210
33.95 	0.060512 	4181 	0.059228
33.99 	0.055000 	4200 	0.053745
34.03 	0.059614 	4244 	0.058371
34.07 	0.056701 	4268 	0.055580
34.11 	0.053696 	4302 	0.053015
34.15 	0.052644 	4331 	0.051967
34.19 	0.054104 	4362 	0.053432
34.23 	0.062827 	4393 	0.062160
34.27 	0.054953 	4422 	0.054423
34.31 	0.063930 	4458 	0.062747
34.35 	0.059991 	4484 	0.058946
34.39 	0.056864 	4502 	0.055823
34.43 	0.061247 	4539 	0.060215
34.47 	0.055749 	4592 	0.055366
34.51 	0.057968 	4606 	0.057078
34.55 	0.057721 	4643 	0.057090
34.59 	0.054118 	4675 	0.053366
34.63 	0.047771 	4710 	0.047398
34.67 	0.058005 	4741 	0.056028
34.71 	0.058959 	4766 	0.057587
34.75 	0.061148 	4808 	0.060539
34.79 	0.060116 	4824 	0.059509
34.83 	0.055533 	4862 	0.054328
34.87 	0.059984 	4868 	0.059001
34.91 	0.060836 	4882 	0.059276
34.95 	0.054806 	4890 	0.054327
34.99 	0.058812 	4897 	0.057256
35.03 	0.058264 	4943 	0.057435
35.07 	0.051619 	4940 	0.051264
35.11 	0.065494 	4947 	0.064073
35.15 	0.058740 	4937 	0.057910
35.19 	0.050789 	4942 	0.050434
35.23 	0.061072 	4945 	0.059769
35.27 	0.058205 	4948 	0.057258
35.31 	0.056558 	4933 	0.055707
35.35 	0.057062 	4942 	0.056351
35.39 	0.060870 	4945 	0.060159
35.43 	0.061018 	4933 	0.059811
35.47 	0.053336 	4931 	0.052504
35.51 	0.056029 	4926 	0.055078
35.55 	0.055814 	4945 	0.054491
35.59 	0.062083 	4945 	0.060780
35.63 	0.053207 	4943 	0.052496
35.67 	0.058883 	4942 	0.057797
35.71 	0.058538 	4937 	0.057707
35.75 	0.055770 	4931 	0.054582
35.79 	0.058394 	4932 	0.057563
35.83 	0.059240 	4946 	0.058292
35.87 	0.062360 	4923 	0.061408
35.91 	0.058656 	4927 	0.057586
35.95 	0.057555 	4917 	0.056721
35.99 	0.063778 	4939 	0.062454
36.03 	0.061703 	4943 	0.060755
36.07 	0.061753 	4939 	0.060429
36.11 	0.059241 	4929 	0.058053
36.15 	0.066410 	4939 	0.064987
36.19 	0.053441 	4940 	0.052848
36.23 	0.059574 	4935 	0.058269
36.27 	0.063756 	4925 	0.062805
36.31 	0.059050 	4928 	0.058099
36.35 	0.064110 	4929 	0.063397
36.39 	0.067466 	4921 	0.066752
36.43 	0.064732 	4928 	0.064138
36.47 	0.058752 	4936 	0.056972
36.51 	0.060612 	4933 	0.059405
36.55 	0.053176 	4927 	0.052344
36.59 	0.060336 	4939 	0.059269
36.63 	0.057595 	4931 	0.057001
36.67 	0.060243 	4930 	0.059055
36.71 	0.061370 	4921 	0.059941
36.75 	0.058050 	4944 	0.057576
36.79 	0.062386 	4921 	0.061076
36.83 	0.065107 	4915 	0.063796
36.87 	0.058657 	4944 	0.058183
36.91 	0.066181 	4941 	0.065232
36.95 	0.059801 	4933 	0.058970
36.99 	0.055522 	4935 	0.054572
37.03 	0.056458 	4924 	0.055269
37.07 	0.057953 	4935 	0.056628
37.11 	0.062614 	4935 	0.061190
37.15 	0.054390 	4909 	0.053674
37.19 	0.056447 	4925 	0.055257
37.23 	0.055917 	4918 	0.054726
37.27 	0.058643 	4894 	0.057566
37.31 	0.061803 	4935 	0.060735
37.35 	0.053868 	4938 	0.053156
37.39 	0.058406 	4931 	0.057337
37.43 	0.060624 	4932 	0.059080
37.47 	0.048286 	4929 	0.048048
37.51 	0.061423 	4933 	0.060473
37.55 	0.063286 	4930 	0.062811
37.59 	0.056765 	4915 	0.055931
37.63 	0.057125 	4919 	0.056173
37.67 	0.063010 	4904 	0.061935
37.71 	0.058227 	4929 	0.056306
37.75 	0.060931 	4940 	0.059844
37.79 	0.058621 	4930 	0.058027
37.83 	0.063821 	4920 	0.061639
37.87 	0.063576 	4939 	0.062983
37.91 	0.052535 	4930 	0.051466
37.95 	0.061166 	4921 	0.060095
37.99 	0.052524 	4912 	0.051809
38.03 	0.060094 	4909 	0.059378
38.07 	0.057649 	4909 	0.056695
38.11 	0.058156 	4935 	0.056732
38.15 	0.058357 	4918 	0.057523
38.19 	0.061866 	4930 	0.060916
38.23 	0.063994 	4938 	0.062807
38.27 	0.060649 	4930 	0.059342
38.31 	0.052365 	4927 	0.051889
38.35 	0.065138 	4928 	0.064187
38.39 	0.060501 	4909 	0.059785
38.43 	0.062653 	4916 	0.061223
38.47 	0.070308 	4907 	0.069114
38.51 	0.069140 	4932 	0.068071
38.55 	0.069692 	4936 	0.068387
38.59 	0.075548 	4924 	0.074002
38.63 	0.078595 	4924 	0.076929
38.67 	0.085274 	4937 	0.083337
38.71 	0.086109 	4924 	0.084205
38.75 	0.079562 	4927 	0.077422
38.79 	0.081678 	4934 	0.078691
38.83 	0.070543 	4919 	0.068698
38.87 	0.082061 	4911 	0.079636
38.91 	0.068326 	4903 	0.066892
38.95 	0.065677 	4918 	0.064129
38.99 	0.059753 	4937 	0.058922
39.03 	0.055128 	4934 	0.054534
39.07 	0.054021 	4924 	0.052950
39.11 	0.051511 	4931 	0.050422
39.15 	0.045982 	4915 	0.045267
39.19 	0.047590 	4917 	0.046379
39.23 	0.051574 	4925 	0.050741
39.27 	0.046843 	4910 	0.046127
39.31 	0.049345 	4884 	0.048505
39.35 	0.051266 	4935 	0.050554
39.39 	0.045648 	4929 	0.045054
39.43 	0.047436 	4933 	0.046842
39.47 	0.041844 	4923 	0.041606
39.51 	0.048132 	4924 	0.047041
39.55 	0.042488 	4919 	0.042131
39.59 	0.041735 	4912 	0.041258
39.63 	0.044494 	4922 	0.043780
39.67 	0.043151 	4913 	0.042793
39.71 	0.046782 	4895 	0.045945
39.75 	0.047484 	4928 	0.046414
39.79 	0.046285 	4926 	0.045314
39.83 	0.045602 	4934 	0.045364
39.87 	0.038985 	4925 	0.038628
39.91 	0.043478 	4922 	0.042883
39.95 	0.041302 	4915 	0.040587
39.99 	0.042985 	4932 	0.042252
40.03 	0.043425 	4928 	0.042831
40.07 	0.044891 	4923 	0.044296
40.11 	0.044345 	4916 	0.044107
40.15 	0.043558 	4913 	0.042962
40.19 	0.044634 	4929 	0.044277
40.23 	0.043187 	4932 	0.042950
40.27 	0.040916 	4937 	0.040560
40.31 	0.043329 	4939 	0.042973
40.35 	0.046351 	4919 	0.045398
40.39 	0.049888 	4931 	0.048819
40.43 	0.039415 	4922 	0.039058
40.47 	0.041887 	4918 	0.041411
40.51 	0.041853 	4922 	0.041615
40.55 	0.039120 	4908 	0.039120
40.59 	0.046182 	4937 	0.045450
40.63 	0.043813 	4930 	0.043695
40.67 	0.044809 	4932 	0.044077
40.71 	0.041565 	4932 	0.041090
40.75 	0.043805 	4931 	0.043211
40.79 	0.042445 	4924 	0.041731
40.83 	0.044643 	4928 	0.043811
40.87 	0.042411 	4928 	0.042054
40.91 	0.048345 	4923 	0.047393
40.95 	0.045390 	4913 	0.044794
40.99 	0.044273 	4924 	0.043559
41.03 	0.043425 	4905 	0.042947
41.07 	0.047667 	4930 	0.046954
41.11 	0.038906 	4935 	0.038075
41.15 	0.042704 	4941 	0.042704
41.19 	0.038540 	4930 	0.038064
41.23 	0.041101 	4939 	0.040390
41.27 	0.041777 	4931 	0.041183
41.31 	0.036286 	4933 	0.035811
41.35 	0.041717 	4938 	0.041243
41.39 	0.043584 	4933 	0.042990
41.43 	0.043417 	4929 	0.042703
41.47 	0.041210 	4926 	0.040734
41.51 	0.044737 	4940 	0.044381
41.55 	0.041743 	4935 	0.041268
41.59 	0.033043 	4933 	0.032924
41.63 	0.043135 	4938 	0.042898
41.67 	0.041903 	4940 	0.041666
41.71 	0.044183 	4934 	0.043233
41.75 	0.044431 	4929 	0.043718
41.79 	0.040453 	4944 	0.040216
41.83 	0.037541 	4928 	0.037303
41.87 	0.042958 	4935 	0.042840
41.91 	0.042545 	4936 	0.042426
41.95 	0.038937 	4931 	0.038700
41.99 	0.044037 	4905 	0.043678
42.03 	0.041304 	4939 	0.041067
42.07 	0.043549 	4937 	0.042837
42.11 	0.034985 	4945 	0.034393
42.15 	0.039085 	4938 	0.038492
42.19 	0.040546 	4908 	0.039949
42.23 	0.039043 	4892 	0.038445
42.27 	0.040829 	4874 	0.039747
42.31 	0.043048 	4855 	0.042445
42.35 	0.037826 	4838 	0.037462
42.39 	0.039342 	4804 	0.038591
42.43 	0.040067 	4792 	0.039945
42.47 	0.040504 	4765 	0.040381
42.51 	0.038583 	4743 	0.037719
42.55 	0.045455 	4708 	0.044957
42.59 	0.039543 	4729 	0.039048
42.63 	0.039286 	4709 	0.038913
42.67 	0.037148 	4684 	0.036898
42.71 	0.038816 	4663 	0.038565
42.75 	0.031406 	4617 	0.031279
42.79 	0.035137 	4582 	0.034498
42.83 	0.039683 	4536 	0.039424
42.87 	0.040676 	4499 	0.040415
42.91 	0.034111 	4456 	0.033717
42.95 	0.038723 	4416 	0.038060
42.99 	0.038312 	4385 	0.038045
43.03 	0.036464 	4333 	0.035788
43.07 	0.039804 	4296 	0.039668
43.11 	0.041363 	4255 	0.040675
43.15 	0.039943 	4206 	0.039525
43.19 	0.036481 	4194 	0.036201
43.23 	0.039239 	4154 	0.038957
43.27 	0.038977 	4105 	0.038977
43.31 	0.033096 	4079 	0.032666
43.35 	0.039187 	4032 	0.038751
43.39 	0.035982 	4002 	0.035543
43.43 	0.038384 	3960 	0.038088
43.47 	0.039786 	3921 	0.039188
43.51 	0.042301 	3877 	0.041243
43.55 	0.035762 	2964 	0.035565
43.59 	0.031501 	1746 	0.031501
43.63 	0.034965 	1001 	0.034965
43.67 	0.043825 	502 	0.043825
43.71 	0.037657 	239 	0.032352
43.75 	0.062500 	16 	0.062500

File: 25SC_s1_0010.001.dat
#F C:\frames\spec\25SC_s1_0010.001
#C title =s:10 frm:1 25SC_s1
#C wavelength =0.15406

#S 1  fr_average C:\frames\spec\25SC_s1_0010.001 C:\win32app\speccom\mask.axs chi 0 180 0 360 0.02
#C 2 theta =0.000000 to 180 deg
#C   q   =0.000000 to 81.568 nm^-1
#C  chi  =0.000000 to 360 deg
#C collumns:
#C  1 position (2theta or chi in degrees)
#C  2 average intensity (sum of all counts in the region divided with number of pixels)
#C  3 Number of pixels in region)
#C  4 error (sum of sqrt(intensity) for all pixels divided by number)
#N 4
#L TTh  Int  N_pix  Err
32.99 	0.114754 	61 	0.114754
33.03 	0.063264 	1391 	0.062422
33.07 	0.056585 	2050 	0.056300
33.11 	0.063203 	2579 	0.061575
33.15 	0.060020 	2999 	0.058848
33.19 	0.053860 	3342 	0.052984
33.23 	0.051944 	3523 	0.051113
33.27 	0.062259 	3630 	0.060968
33.31 	0.057104 	3660 	0.056624
33.35 	0.052247 	3694 	0.050794
33.39 	0.054975 	3729 	0.054660
33.43 	0.064345 	3761 	0.063254
33.47 	0.064244 	3798 	0.062368
33.51 	0.066055 	3815 	0.065441
33.55 	0.062451 	3843 	0.061841
33.59 	0.059278 	3880 	0.058825
33.63 	0.055116 	3919 	0.053920
33.67 	0.054375 	3954 	0.053635
33.71 	0.057610 	3975 	0.057168
33.75 	0.065516 	3999 	0.064198
33.79 	0.058401 	4041 	0.056759
33.83 	0.057531 	4050 	0.056518
33.87 	0.059839 	4111 	0.058985
33.91 	0.059773 	4149 	0.058503
33.95 	0.056207 	4181 	0.054946
33.99 	0.066190 	4200 	0.064935
34.03 	0.063619 	4244 	0.061802
34.07 	0.059044 	4268 	0.058221
34.11 	0.058577 	4302 	0.057624
34.15 	0.062110 	4331 	0.061164
34.19 	0.060293 	4362 	0.059085
34.23 	0.063965 	4393 	0.061899
34.27 	0.054953 	4422 	0.054290
34.31 	0.056303 	4458 	0.055515
34.35 	0.062221 	4484 	0.060501
34.39 	0.062417 	4502 	0.060985
34.43 	0.059925 	4539 	0.059280
34.47 	0.054225 	4592 	0.053587
34.51 	0.055145 	4606 	0.054128
34.55 	0.057937 	4643 	0.056549
34.59 	0.054545 	4675 	0.053668
34.63 	0.053928 	4710 	0.053306
34.67 	0.059059 	4741 	0.058071
34.71 	0.061477 	4766 	0.060863
34.75 	0.055948 	4808 	0.054365
34.79 	0.061567 	4824 	0.061081
34.83 	0.059029 	4862 	0.057342
34.87 	0.054848 	4868 	0.054126
34.91 	0.060426 	4882 	0.059826
34.95 	0.055215 	4890 	0.054376
34.99 	0.061875 	4897 	0.060659
35.03 	0.061703 	4943 	0.060755
35.07 	0.055870 	4940 	0.054803
35.11 	0.055185 	4947 	0.054711
35.15 	0.055297 	4937 	0.054585
35.19 	0.052206 	4942 	0.051257
35.23 	0.055814 	4945 	0.054985
35.27 	0.060024 	4948 	0.059077
35.31 	0.058990 	4933 	0.058278
35.35 	0.051396 	4942 	0.050329
35.39 	0.060465 	4945 	0.058807
35.43 	0.052706 	4933 	0.051994
35.47 	0.059623 	4931 	0.059029
35.51 	0.056029 	4926 	0.054483
35.55 	0.057634 	4945 	0.056686
35.59 	0.053185 	4945 	0.052356
35.63 	0.057860 	4943 	0.057030
35.67 	0.059692 	4942 	0.058744
35.71 	0.061171 	4937 	0.060103
35.75 	0.052119 	4931 	0.051288
35.79 	0.056975 	4932 	0.056381
35.83 	0.050748 	4946 	0.050630
35.87 	0.059313 	4923 	0.058718
35.91 	0.060077 	4927 	0.059007
35.95 	0.059996 	4917 	0.058428
35.99 	0.057502 	4939 	0.057146
36.03 	0.064940 	4943 	0.063854
36.07 	0.055274 	4939 	0.054563
36.11 	0.058430 	4929 	0.057954
36.15 	0.056894 	4939 	0.056064
36.19 	0.059919 	4940 	0.058852
36.23 	0.056738 	4935 	0.055313
36.27 	0.055025 	4925 	0.053717
36.31 	0.053369 	4928 	0.052774
36.35 	0.056198 	4929 	0.055604
36.39 	0.058525 	4921 	0.057810
36.43 	0.062094 	4928 	0.060905
36.47 	0.055511 	4936 	0.053948
36.51 	0.067910 	4933 	0.066366
36.55 	0.069413 	4927 	0.068086
36.59 	0.058716 	4939 	0.057768
36.63 	0.062259 	4931 	0.061071
36.67 	0.060243 	4930 	0.059530
36.71 	0.062182 	4921 	0.060873
36.75 	0.058859 	4944 	0.057674
36.79 	0.053851 	4921 	0.052780
36.83 	0.058800 	4915 	0.057250
36.87 	0.057443 	4944 	0.056140
36.91 	0.059705 	4941 	0.058993
36.95 	0.057166 	4933 	0.056454
36.99 	0.058764 	4935 	0.057914
37.03 	0.063160 	4924 	0.062565
37.07 	0.062209 	4935 	0.061240
37.11 	0.057751 	4935 	0.056544
37.15 	0.063964 	4909 	0.062632
37.19 	0.061726 	4925 	0.060299
37.23 	0.054900 	4918 	0.054424
37.27 	0.062526 	4894 	0.061448
37.31 	0.056940 	4935 	0.056465
37.35 	0.055691 	4938 	0.054860
37.39 	0.061854 	4931 	0.060784
37.43 	0.060016 	4932 	0.058947
37.47 	0.057821 	4929 	0.057108
37.51 	0.060004 	4933 	0.058935
37.55 	0.062677 	4930 	0.061133
37.59 	0.055748 	4915 	0.054794
37.63 	0.055296 	4919 	0.054443
37.67 	0.054038 	4904 	0.052962
37.71 	0.058227 	4929 	0.057732
37.75 	0.054656 	4940 	0.053944
37.79 	0.051724 	4930 	0.051249
37.83 	0.049187 	4920 	0.047996
37.87 	0.056894 	4939 	0.056163
37.91 	0.046450 	4930 	0.045975
37.95 	0.057712 	4921 	0.056760
37.99 	0.054560 	4912 	0.053606
38.03 	0.057649 	4909 	0.056337
38.07 	0.054797 	4909 	0.054439
38.11 	0.048835 	4935 	0.048360
38.15 	0.049004 	4918 	0.048408
38.19 	0.051724 	4930 	0.050892
38.23 	0.055083 	4938 	0.054371
38.27 	0.053753 	4930 	0.052683
38.31 	0.058453 	4927 	0.057146
38.35 	0.055195 	4928 	0.054244
38.39 	0.058464 	4909 	0.057987
38.43 	0.062246 	4916 	0.061531
38.47 	0.062767 	4907 	0.060977
38.51 	0.070357 	4932 	0.068437
38.55 	0.066248 	4936 	0.064587
38.59 	0.068237 	4924 	0.067028
38.63 	0.072705 	4924 	0.071515
38.67 	0.073121 	4937 	0.071203
38.71 	0.070674 	4924 	0.069128
38.75 	0.070225 	4927 	0.068680
38.79 	0.067694 	4934 	0.066506
38.83 	0.066680 	4919 	0.065251
38.87 	0.064549 	4911 	0.063475
38.91 	0.059759 	4903 	0.058684
38.95 	0.068727 	4918 	0.067298
38.99 	0.056512 	4937 	0.056156
39.03 	0.054722 	4934 	0.053773
39.07 	0.050772 	4924 	0.050534
39.11 	0.054756 	4931 	0.053786
39.15 	0.045371 	4915 	0.044895
39.19 	0.051047 	4917 	0.050333
39.23 	0.048528 	4925 	0.047933
39.27 	0.050306 	4910 	0.049590
39.31 	0.042588 	4884 	0.042588
39.35 	0.046201 	4935 	0.044638
39.39 	0.045445 	4929 	0.044832
39.43 	0.040949 	4933 	0.040355
39.47 	0.043876 	4923 	0.042924
39.51 	0.049147 	4924 	0.048671
39.55 	0.046554 	4919 	0.046316
39.59 	0.047435 	4912 	0.046819
39.63 	0.046119 	4922 	0.045524
39.67 	0.043354 	4913 	0.042758
39.71 	0.046578 	4895 	0.046339
39.75 	0.049919 	4928 	0.049206
39.79 	0.047503 	4926 	0.046433
39.83 	0.044791 	4934 	0.044554
39.87 	0.041827 	4925 	0.041471
39.91 	0.045307 	4922 	0.044831
39.95 	0.047202 	4915 	0.046607
39.99 	0.050689 	4932 	0.049858
40.03 	0.043831 	4928 	0.043475
40.07 	0.045094 	4923 	0.044618
40.11 	0.042921 	4916 	0.042325
40.15 	0.042744 	4913 	0.042148
40.19 	0.035707 	4929 	0.035588
40.23 	0.046431 	4932 	0.045481
40.27 	0.041118 	4937 	0.040406
40.31 	0.035837 	4939 	0.035481
40.35 	0.043911 	4919 	0.043415
40.39 	0.041777 	4931 	0.040945
40.43 	0.042462 	4922 	0.041986
40.47 	0.046157 	4918 	0.045085
40.51 	0.047135 	4922 	0.046302
40.55 	0.039731 	4908 	0.039254
40.59 	0.041726 	4937 	0.041370
40.63 	0.043408 	4930 	0.042438
40.67 	0.037713 	4932 	0.037475
40.71 	0.043187 	4932 	0.042811
40.75 	0.048672 	4931 	0.047840
40.79 	0.042242 	4924 	0.041885
40.83 	0.047281 	4928 	0.046687
40.87 	0.042817 	4928 	0.041846
40.91 	0.040829 	4923 	0.040472
40.95 	0.045797 	4913 	0.045320
40.99 	0.046913 	4924 	0.045961
41.03 	0.038940 	4905 	0.038343
41.07 	0.043813 	4930 	0.042982
41.11 	0.040729 	4935 	0.040255
41.15 	0.044323 	4941 	0.043375
41.19 	0.043611 	4930 	0.042898
41.23 	0.048390 	4939 	0.048153
41.27 	0.041574 	4931 	0.041099
41.31 	0.041151 	4933 	0.040795
41.35 	0.038477 	4938 	0.037746
41.39 	0.041354 	4933 	0.040998
41.43 	0.046865 	4929 	0.045915
41.47 	0.046488 	4926 	0.046250
41.51 	0.042308 	4940 	0.042189
41.55 	0.041945 	4935 	0.041470
41.59 	0.037908 	4933 	0.037552
41.63 	0.040907 	4938 	0.040670
41.67 	0.040891 	4940 	0.040416
41.71 	0.041346 	4934 	0.040990
41.75 	0.042402 	4929 	0.042046
41.79 	0.041262 	4944 	0.040769
41.83 	0.034700 	4928 	0.034105
41.87 	0.038906 	4935 	0.038431
41.91 	0.039708 	4936 	0.039352
41.95 	0.036909 	4931 	0.036553
41.99 	0.039348 	4905 	0.039228
42.03 	0.041101 	4939 	0.040864
42.07 	0.041321 	4937 	0.040965
42.11 	0.043276 	4945 	0.042684
42.15 	0.036655 	4938 	0.036299
42.19 	0.042176 	4908 	0.041937
42.23 	0.043336 	4892 	0.042857
42.27 	0.039188 	4874 	0.038346
42.31 	0.045520 	4855 	0.044626
42.35 	0.045680 	4838 	0.045559
42.39 	0.033306 	4804 	0.033184
42.43 	0.037145 	4792 	0.037023
42.47 	0.045331 	4765 	0.044593
42.51 	0.040902 	4743 	0.040408
42.55 	0.034410 	4708 	0.034161
42.59 	0.035948 	4729 	0.035329
42.63 	0.039286 	4709 	0.038913
42.67 	0.034586 	4684 	0.034211
42.71 	0.035170 	4663 	0.034919
42.75 	0.040936 	4617 	0.040428
42.79 	0.039721 	4582 	0.039209
42.83 	0.041446 	4536 	0.041188
42.87 	0.037342 	4499 	0.036951
42.91 	0.040395 	4456 	0.039343
42.95 	0.038270 	4416 	0.038137
42.99 	0.040365 	4385 	0.040098
43.03 	0.035541 	4333 	0.035271
43.07 	0.039804 	4296 	0.039668
43.11 	0.041598 	4255 	0.041323
43.15 	0.032335 	4206 	0.032335
43.19 	0.038627 	4194 	0.038208
43.23 	0.041406 	4154 	0.040983
43.27 	0.038246 	4105 	0.038103
43.31 	0.035548 	4079 	0.035117
43.35 	0.037202 	4032 	0.036743
43.39 	0.044478 	4002 	0.043746
43.43 	0.043434 	3960 	0.043138
43.47 	0.040551 	3921 	0.040103
43.51 	0.044106 	3877 	0.043779
43.55 	0.032389 	2964 	0.032191
43.59 	0.036082 	1746 	0.035076
43.63 	0.037962 	1001 	0.037377
43.67 	0.033865 	502 	0.033865
43.71 	0.046025 	239 	0.043574
43.75 	0.000000 	16 	0.000000