Folder: Bessy-II-KMC-II-insitu-sin2psi/Example_Data (part 49)

File: 25SC_s1_0020.000.dat
#F C:\frames\spec\25SC_s1_0020.000
#C title =s:20 frm:0 25SC_s1
#C wavelength =0.15406

#S 1  fr_average C:\frames\spec\25SC_s1_0020.000 C:\win32app\speccom\mask.axs chi 0 180 0 360 0.02
#C 2 theta =0.000000 to 180 deg
#C   q   =0.000000 to 81.568 nm^-1
#C  chi  =0.000000 to 360 deg
#C collumns:
#C  1 position (2theta or chi in degrees)
#C  2 average intensity (sum of all counts in the region divided with number of pixels)
#C  3 Number of pixels in region)
#C  4 error (sum of sqrt(intensity) for all pixels divided by number)
#N 4
#L TTh  Int  N_pix  Err
32.99 	0.049180 	61 	0.049180
33.03 	0.059669 	1391 	0.058406
33.07 	0.067805 	2050 	0.066376
33.11 	0.063203 	2579 	0.061613
33.15 	0.062021 	2999 	0.061239
33.19 	0.055655 	3342 	0.054604
33.23 	0.057054 	3523 	0.056222
33.27 	0.053719 	3630 	0.053235
33.31 	0.068033 	3660 	0.067233
33.35 	0.056308 	3694 	0.055673
33.39 	0.059265 	3729 	0.058166
33.43 	0.065940 	3761 	0.065005
33.47 	0.060558 	3798 	0.059941
33.51 	0.059764 	3815 	0.058843
33.55 	0.061410 	3843 	0.060013
33.59 	0.057990 	3880 	0.057386
33.63 	0.063537 	3919 	0.061593
33.67 	0.059939 	3954 	0.058754
33.71 	0.063648 	3975 	0.062911
33.75 	0.056014 	3999 	0.054989
33.79 	0.061123 	4041 	0.060254
33.83 	0.060247 	4050 	0.058945
33.87 	0.058623 	4111 	0.056747
33.91 	0.058086 	4149 	0.056674
33.95 	0.060273 	4181 	0.059712
33.99 	0.063810 	4200 	0.062275
34.03 	0.055844 	4244 	0.055429
34.07 	0.060684 	4268 	0.059723
34.11 	0.060205 	4302 	0.059796
34.15 	0.056569 	4331 	0.056028
34.19 	0.061440 	4362 	0.060365
34.23 	0.058275 	4393 	0.057474
34.27 	0.056762 	4422 	0.055702
34.31 	0.056079 	4458 	0.055553
34.35 	0.057761 	4484 	0.056324
34.39 	0.057974 	4502 	0.057454
34.43 	0.055519 	4539 	0.053949
34.47 	0.058362 	4592 	0.057469
34.51 	0.052540 	4606 	0.051650
34.55 	0.052768 	4643 	0.052137
34.59 	0.053690 	4675 	0.052437
34.63 	0.056476 	4710 	0.055978
34.67 	0.058848 	4741 	0.057983
34.71 	0.057700 	4766 	0.057086
34.75 	0.053661 	4808 	0.053173
34.79 	0.058872 	4824 	0.057901
34.83 	0.059852 	4862 	0.058888
34.87 	0.056491 	4868 	0.055529
34.91 	0.060016 	4882 	0.059296
34.95 	0.060327 	4890 	0.059489
34.99 	0.052277 	4897 	0.051798
35.03 	0.054623 	4943 	0.054149
35.07 	0.053846 	4940 	0.053372
35.11 	0.057004 	4947 	0.056057
35.15 	0.055904 	4937 	0.055054
35.19 	0.059490 	4942 	0.058305
35.23 	0.061274 	4945 	0.060208
35.27 	0.056993 	4948 	0.056519
35.31 	0.058180 	4933 	0.056992
35.35 	0.056455 	4942 	0.056099
35.39 	0.055814 	4945 	0.054866
35.43 	0.054936 	4933 	0.054224
35.47 	0.063070 	4931 	0.062001
35.51 	0.056232 	4926 	0.055142
35.55 	0.062487 	4945 	0.061066
35.59 	0.052376 	4945 	0.051310
35.63 	0.055634 	4943 	0.055160
35.67 	0.057669 	4942 	0.056484
35.71 	0.063804 	4937 	0.062736
35.75 	0.057392 	4931 	0.056323
35.79 	0.053933 	4932 	0.052865
35.83 	0.058229 	4946 	0.057400
35.87 	0.062157 	4923 	0.060967
35.91 	0.066978 	4927 	0.065175
35.95 	0.055522 	4917 	0.054926
35.99 	0.057704 	4939 	0.056261
36.03 	0.053611 	4943 	0.053137
36.07 	0.065398 	4939 	0.064449
36.11 	0.054169 	4929 	0.053218
36.15 	0.053857 	4939 	0.052414
36.19 	0.058300 	4940 	0.057707
36.23 	0.057143 	4935 	0.056055
36.27 	0.059898 	4925 	0.059046
36.31 	0.066964 	4928 	0.066013
36.35 	0.057618 	4929 	0.056905
36.39 	0.057915 	4921 	0.056467
36.43 	0.059253 	4928 	0.057589
36.47 	0.057536 	4936 	0.056468
36.51 	0.055950 	4933 	0.054881
36.55 	0.058250 	4927 	0.057775
36.59 	0.060741 	4939 	0.060029
36.63 	0.064693 	4931 	0.063624
36.67 	0.057809 	4930 	0.056483
36.71 	0.059744 	4921 	0.058077
36.75 	0.056028 	4944 	0.055080
36.79 	0.058321 	4921 	0.057112
36.83 	0.059207 	4915 	0.058491
36.87 	0.063309 	4944 	0.062124
36.91 	0.066586 	4941 	0.065637
36.95 	0.054733 	4933 	0.053902
36.99 	0.062614 	4935 	0.061546
37.03 	0.063972 	4924 	0.062664
37.07 	0.059169 	4935 	0.058338
37.11 	0.051874 	4935 	0.051518
37.15 	0.062946 	4909 	0.061514
37.19 	0.052386 	4925 	0.051434
37.23 	0.058560 	4918 	0.057469
37.27 	0.056600 	4894 	0.056001
37.31 	0.053901 	4935 	0.053288
37.35 	0.056096 	4938 	0.055028
37.39 	0.065910 	4931 	0.065078
37.43 	0.055961 	4932 	0.055130
37.47 	0.061473 	4929 	0.060166
37.51 	0.055950 	4933 	0.055118
37.55 	0.057809 	4930 	0.057334
37.59 	0.055341 	4915 	0.054983
37.63 	0.058142 	4919 	0.056832
37.67 	0.064029 	4904 	0.062596
37.71 	0.052343 	4929 	0.051155
37.75 	0.054656 	4940 	0.053233
37.79 	0.058621 	4930 	0.057670
37.83 	0.056707 	4920 	0.055755
37.87 	0.053655 	4939 	0.052943
37.91 	0.065720 	4930 	0.064770
37.95 	0.051616 	4921 	0.050901
37.99 	0.052117 	4912 	0.051163
38.03 	0.058057 	4909 	0.057341
38.07 	0.058668 	4909 	0.057336
38.11 	0.058359 	4935 	0.057409
38.15 	0.057950 	4918 	0.056125
38.19 	0.062272 	4930 	0.061202
38.23 	0.060956 	4938 	0.059532
38.27 	0.059838 	4930 	0.058412
38.31 	0.069008 	4927 	0.068056
38.35 	0.062500 	4928 	0.061668
38.39 	0.063760 	4909 	0.062686
38.43 	0.071806 	4916 	0.070853
38.47 	0.072549 	4907 	0.070998
38.51 	0.079481 	4932 	0.077343
38.55 	0.085900 	4936 	0.084119
38.59 	0.077376 	4924 	0.075473
38.63 	0.085093 	4924 	0.082576
38.67 	0.080616 	4937 	0.079073
38.71 	0.080219 	4924 	0.078911
38.75 	0.076923 	4927 	0.075377
38.79 	0.069720 	4934 	0.068177
38.83 	0.074405 	4919 	0.072838
38.87 	0.055386 	4911 	0.054909
38.91 	0.064042 	4903 	0.063087
38.95 	0.059374 	4918 	0.058302
38.99 	0.054284 	4937 	0.053691
39.03 	0.046413 	4934 	0.045700
39.07 	0.047929 	4924 	0.047334
39.11 	0.050700 	4931 	0.050343
39.15 	0.044761 	4915 	0.044403
39.19 	0.044133 	4917 	0.043299
39.23 	0.048528 	4925 	0.048052
39.27 	0.051731 	4910 	0.050419
39.31 	0.047502 	4884 	0.046902
39.35 	0.049037 	4935 	0.047969
39.39 	0.044431 	4929 	0.043718
39.43 	0.051085 	4933 	0.050253
39.47 	0.045094 	4923 	0.044381
39.51 	0.048335 	4924 	0.047621
39.55 	0.044318 	4919 	0.043961
39.59 	0.043770 	4912 	0.043413
39.63 	0.046323 	4922 	0.045132
39.67 	0.050682 	4913 	0.049966
39.71 	0.047191 	4895 	0.046114
39.75 	0.045860 	4928 	0.045147
39.79 	0.045676 	4926 	0.045200
39.83 	0.043170 	4934 	0.042457
39.87 	0.043858 	4925 	0.043382
39.91 	0.044088 	4922 	0.043255
39.95 	0.050051 	4915 	0.049455
39.99 	0.042376 	4932 	0.041901
40.03 	0.048295 	4928 	0.047582
40.07 	0.041844 	4923 	0.041249
40.11 	0.049837 	4916 	0.049480
40.15 	0.043761 	4913 	0.043285
40.19 	0.047271 	4929 	0.046083
40.23 	0.042579 	4932 	0.041629
40.27 	0.043549 	4937 	0.042481
40.31 	0.043936 	4939 	0.043699
40.35 	0.044521 	4919 	0.043926
40.39 	0.042588 	4931 	0.042113
40.43 	0.040431 	4922 	0.039836
40.47 	0.047174 	4918 	0.046816
40.51 	0.040024 	4922 	0.039667
40.55 	0.046047 	4908 	0.045689
40.59 	0.039903 	4937 	0.039290
40.63 	0.041582 	4930 	0.041226
40.67 	0.042174 	4932 	0.041817
40.71 	0.043593 	4932 	0.042999
40.75 	0.041777 	4931 	0.041539
40.79 	0.045288 	4924 	0.044931
40.83 	0.043019 	4928 	0.042663
40.87 	0.044237 	4928 	0.043286
40.91 	0.038797 	4923 	0.038441
40.95 	0.046407 	4913 	0.046050
40.99 	0.044476 	4924 	0.044119
41.03 	0.040571 	4905 	0.039377
41.07 	0.041176 	4930 	0.040582
41.11 	0.036474 	4935 	0.036118
41.15 	0.043311 	4941 	0.042600
41.19 	0.041379 	4930 	0.040904
41.23 	0.038469 	4939 	0.037995
41.27 	0.044413 	4931 	0.044175
41.31 	0.044800 	4933 	0.043950
41.35 	0.039692 	4938 	0.039455
41.39 	0.042773 	4933 	0.042417
41.43 	0.039359 	4929 	0.038884
41.47 	0.037759 	4926 	0.037283
41.51 	0.040891 	4940 	0.040416
41.55 	0.039919 	4935 	0.039444
41.59 	0.041760 	4933 	0.040810
41.63 	0.041312 	4938 	0.040601
41.67 	0.042510 	4940 	0.042273
41.71 	0.046413 	4934 	0.046056
41.75 	0.038344 	4929 	0.037988
41.79 	0.041464 	4944 	0.040753
41.83 	0.041396 	4928 	0.040683
41.87 	0.042756 	4935 	0.041806
41.91 	0.038695 	4936 	0.038695
41.95 	0.036301 	4931 	0.036301
41.99 	0.046279 	4905 	0.046040
42.03 	0.034622 	4939 	0.034148
42.07 	0.037472 	4937 	0.037235
42.11 	0.037816 	4945 	0.037461
42.15 	0.042122 	4938 	0.041411
42.19 	0.041769 	4908 	0.041530
42.23 	0.038226 	4892 	0.037986
42.27 	0.044522 	4874 	0.043681
42.31 	0.039753 	4855 	0.039270
42.35 	0.038239 	4838 	0.037512
42.39 	0.039550 	4804 	0.039063
42.43 	0.045284 	4792 	0.044550
42.47 	0.037775 	4765 	0.037530
42.51 	0.038583 	4743 	0.038213
42.55 	0.037596 	4708 	0.036953
42.59 	0.041446 	4729 	0.041323
42.63 	0.039924 	4709 	0.039426
42.67 	0.038642 	4684 	0.038017
42.71 	0.035814 	4663 	0.035563
42.75 	0.038770 	4617 	0.038389
42.79 	0.037975 	4582 	0.037591
42.83 	0.038139 	4536 	0.037752
42.87 	0.038898 	4499 	0.038637
42.91 	0.036355 	4456 	0.035961
42.95 	0.041440 	4416 	0.040644
42.99 	0.046978 	4385 	0.046578
43.03 	0.033695 	4333 	0.033425
43.07 	0.039804 	4296 	0.039123
43.11 	0.039483 	4255 	0.039208
43.15 	0.038279 	4206 	0.037722
43.19 	0.035765 	4194 	0.035486
43.23 	0.038036 	4154 	0.037613
43.27 	0.041900 	4105 	0.041472
43.31 	0.036283 	4079 	0.035853
43.35 	0.042907 	4032 	0.042035
43.39 	0.044228 	4002 	0.043935
43.43 	0.040152 	3960 	0.039560
43.47 	0.038511 	3921 	0.038361
43.51 	0.036884 	3877 	0.036733
43.55 	0.035425 	2964 	0.035030
43.59 	0.036082 	1746 	0.036082
43.63 	0.051948 	1001 	0.050778
43.67 	0.027888 	502 	0.027888
43.71 	0.041841 	239 	0.041841
43.75 	0.000000 	16 	0.000000

File: 25SC_s1_0020.001.dat
#F C:\frames\spec\25SC_s1_0020.001
#C title =s:20 frm:1 25SC_s1
#C wavelength =0.15406

#S 1  fr_average C:\frames\spec\25SC_s1_0020.001 C:\win32app\speccom\mask.axs chi 0 180 0 360 0.02
#C 2 theta =0.000000 to 180 deg
#C   q   =0.000000 to 81.568 nm^-1
#C  chi  =0.000000 to 360 deg
#C collumns:
#C  1 position (2theta or chi in degrees)
#C  2 average intensity (sum of all counts in the region divided with number of pixels)
#C  3 Number of pixels in region)
#C  4 error (sum of sqrt(intensity) for all pixels divided by number)
#N 4
#L TTh  Int  N_pix  Err
32.99 	0.049180 	61 	0.039577
33.03 	0.067577 	1391 	0.067577
33.07 	0.050732 	2050 	0.050446
33.11 	0.066305 	2579 	0.064942
33.15 	0.066022 	2999 	0.064850
33.19 	0.050269 	3342 	0.049189
33.23 	0.063298 	3523 	0.062633
33.27 	0.058678 	3630 	0.058032
33.31 	0.060929 	3660 	0.059969
33.35 	0.058473 	3694 	0.057363
33.39 	0.062215 	3729 	0.061430
33.43 	0.060356 	3761 	0.059422
33.47 	0.063718 	3798 	0.062330
33.51 	0.055570 	3815 	0.054649
33.55 	0.066094 	3843 	0.064570
33.59 	0.054124 	3880 	0.053369
33.63 	0.067109 	3919 	0.066511
33.67 	0.057410 	3954 	0.056225
33.71 	0.060881 	3975 	0.060291
33.75 	0.063516 	3999 	0.062027
33.79 	0.059144 	4041 	0.057815
33.83 	0.052346 	4050 	0.051189
33.87 	0.062272 	4111 	0.060562
33.91 	0.060014 	4149 	0.059309
33.95 	0.063860 	4181 	0.063020
33.99 	0.056667 	4200 	0.055690
34.03 	0.055844 	4244 	0.054601
34.07 	0.054827 	4268 	0.053729
34.11 	0.057648 	4302 	0.056286
34.15 	0.057262 	4331 	0.055887
34.19 	0.058689 	4362 	0.057189
34.23 	0.061006 	4393 	0.059351
34.27 	0.053822 	4422 	0.052762
34.31 	0.053163 	4458 	0.051827
34.35 	0.063113 	4484 	0.062460
34.39 	0.057086 	4502 	0.056175
34.43 	0.058824 	4539 	0.057533
34.47 	0.060105 	4592 	0.058829
34.51 	0.055145 	4606 	0.054255
34.55 	0.055568 	4643 	0.054432
34.59 	0.055401 	4675 	0.054148
34.63 	0.055626 	4710 	0.054735
34.67 	0.056317 	4741 	0.056194
34.71 	0.056441 	4766 	0.055827
34.75 	0.054077 	4808 	0.053346
34.79 	0.057421 	4824 	0.056328
34.83 	0.054504 	4862 	0.053521
34.87 	0.052794 	4868 	0.052433
34.91 	0.056944 	4882 	0.056344
34.95 	0.059100 	4890 	0.057523
34.99 	0.052685 	4897 	0.052087
35.03 	0.058871 	4943 	0.057805
35.07 	0.058907 	4940 	0.058314
35.11 	0.061451 	4947 	0.060267
35.15 	0.061576 	4937 	0.060389
35.19 	0.058074 	4942 	0.057718
35.23 	0.057836 	4945 	0.057106
35.27 	0.056589 	4948 	0.054892
35.31 	0.053112 	4933 	0.051667
35.35 	0.060097 	4942 	0.058438
35.39 	0.056421 	4945 	0.055947
35.43 	0.058585 	4933 	0.057516
35.47 	0.064490 	4931 	0.063658
35.51 	0.060292 	4926 	0.059321
35.55 	0.053185 	4945 	0.051882
35.59 	0.057634 	4945 	0.056805
35.63 	0.056443 	4943 	0.055614
35.67 	0.058681 	4942 	0.058207
35.71 	0.059145 	4937 	0.057959
35.75 	0.062259 	4931 	0.061309
35.79 	0.053122 	4932 	0.052291
35.83 	0.053781 	4946 	0.053189
35.87 	0.058095 	4923 	0.056855
35.91 	0.057642 	4927 	0.056809
35.95 	0.057759 	4917 	0.056190
35.99 	0.057502 	4939 	0.056553
36.03 	0.054825 	4943 	0.053877
36.07 	0.066815 	4939 	0.065036
36.11 	0.062082 	4929 	0.061250
36.15 	0.060741 	4939 	0.060267
36.19 	0.058300 	4940 	0.057331
36.23 	0.051064 	4935 	0.049639
36.27 	0.057259 	4925 	0.056783
36.31 	0.062297 	4928 	0.061465
36.35 	0.057821 	4929 	0.057108
36.39 	0.064621 	4921 	0.063550
36.43 	0.059253 	4928 	0.058659
36.47 	0.057334 	4936 	0.056503
36.51 	0.054531 	4933 	0.053699
36.55 	0.054191 	4927 	0.053240
36.59 	0.055679 	4939 	0.054968
36.63 	0.051714 	4931 	0.050625
36.67 	0.053347 	4930 	0.052396
36.71 	0.061776 	4921 	0.060189
36.75 	0.058455 	4944 	0.057981
36.79 	0.060760 	4921 	0.059451
36.83 	0.060427 	4915 	0.058997
36.87 	0.058252 	4944 	0.057068
36.91 	0.061728 	4941 	0.060780
36.95 	0.059801 	4933 	0.058495
36.99 	0.057143 	4935 	0.056174
37.03 	0.059098 	4924 	0.057889
37.07 	0.057751 	4935 	0.057039
37.11 	0.059574 	4935 	0.058981
37.15 	0.056427 	4909 	0.055950
37.19 	0.052589 	4925 	0.052113
37.23 	0.057950 	4918 	0.057474
37.27 	0.059256 	4894 	0.058897
37.31 	0.058156 	4935 	0.057306
37.35 	0.056703 	4938 	0.055635
37.39 	0.056175 	4931 	0.055225
37.43 	0.058597 	4932 	0.057172
37.47 	0.049909 	4929 	0.048720
37.51 	0.050476 	4933 	0.049764
37.55 	0.061055 	4930 	0.059867
37.59 	0.059410 	4915 	0.058576
37.63 	0.060175 	4919 	0.059103
37.67 	0.054445 	4904 	0.053490
37.71 	0.054372 	4929 	0.053184
37.75 	0.056478 	4940 	0.054936
37.79 	0.055172 	4930 	0.054559
37.83 	0.058333 	4920 	0.058095
37.87 	0.051630 	4939 	0.051155
37.91 	0.052535 	4930 	0.051704
37.95 	0.055680 	4921 	0.055323
37.99 	0.056189 	4912 	0.055712
38.03 	0.053371 	4909 	0.051701
38.07 	0.054797 	4909 	0.053365
38.11 	0.059574 	4935 	0.058625
38.15 	0.057747 	4918 	0.056655
38.19 	0.054361 	4930 	0.053292
38.23 	0.057108 	4938 	0.055803
38.27 	0.060041 	4930 	0.058852
38.31 	0.052973 	4927 	0.051547
38.35 	0.057224 	4928 	0.056511
38.39 	0.064575 	4909 	0.063501
38.43 	0.065704 	4916 	0.064512
38.47 	0.069900 	4907 	0.068070
38.51 	0.070560 	4932 	0.068996
38.55 	0.081848 	4936 	0.080780
38.59 	0.073111 	4924 	0.071803
38.63 	0.082453 	4924 	0.081006
38.67 	0.078388 	4937 	0.075896
38.71 	0.065394 	4924 	0.064046
38.75 	0.067384 	4927 	0.066433
38.79 	0.069112 	4934 	0.068024
38.83 	0.063631 	4919 	0.062182
38.87 	0.059255 	4911 	0.057943
38.91 	0.058740 	4903 	0.058381
38.95 	0.061610 	4918 	0.061015
38.99 	0.053879 	4937 	0.052673
39.03 	0.051277 	4934 	0.050565
39.07 	0.054427 	4924 	0.052742
39.11 	0.049686 	4931 	0.048835
39.15 	0.054323 	4915 	0.053251
39.19 	0.049624 	4917 	0.049028
39.23 	0.047716 	4925 	0.047002
39.27 	0.051324 	4910 	0.050489
39.31 	0.048116 	4884 	0.047637
39.35 	0.052280 	4935 	0.051429
39.39 	0.045445 	4929 	0.045208
39.43 	0.053112 	4933 	0.052518
39.47 	0.047735 	4923 	0.047378
39.51 	0.048335 	4924 	0.047978
39.55 	0.042692 	4919 	0.042096
39.59 	0.048656 	4912 	0.047702
39.63 	0.044697 	4922 	0.044102
39.67 	0.043354 	4913 	0.042758
39.71 	0.043105 	4895 	0.042746
39.75 	0.045049 	4928 	0.044217
39.79 	0.041007 	4926 	0.040650
39.83 	0.052290 	4934 	0.051815
39.87 	0.049137 	4925 	0.048542
39.91 	0.043275 	4922 	0.043037
39.95 	0.046796 	4915 	0.045961
39.99 	0.045418 	4932 	0.044586
40.03 	0.042614 	4928 	0.041663
40.07 	0.044891 	4923 	0.043939
40.11 	0.048007 	4916 	0.047053
40.15 	0.040912 	4913 	0.040077
40.19 	0.043417 	4929 	0.042941
40.23 	0.045620 	4932 	0.045264
40.27 	0.043346 	4937 	0.042753
40.31 	0.045151 	4939 	0.044439
40.35 	0.042285 	4919 	0.041809
40.39 	0.043805 	4931 	0.042973
40.43 	0.046932 	4922 	0.046813
40.47 	0.042497 	4918 	0.042140
40.51 	0.042259 	4922 	0.041664
40.55 	0.038305 	4908 	0.037589
40.59 	0.039700 	4937 	0.039463
40.63 	0.045842 	4930 	0.044772
40.67 	0.041160 	4932 	0.040685
40.71 	0.043998 	4932 	0.043405
40.75 	0.040763 	4931 	0.039931
40.79 	0.045491 	4924 	0.044778
40.83 	0.043831 	4928 	0.043237
40.87 	0.044440 	4928 	0.043964
40.91 	0.045094 	4923 	0.043905
40.95 	0.045390 	4913 	0.044555
40.99 	0.044679 	4924 	0.043965
41.03 	0.042406 	4905 	0.041928
41.07 	0.039554 	4930 	0.038960
41.11 	0.039311 	4935 	0.038836
41.15 	0.042097 	4941 	0.041148
41.19 	0.042596 	4930 	0.042240
41.23 	0.043329 	4939 	0.042498
41.27 	0.039749 	4931 	0.039630
41.31 	0.041760 	4933 	0.041285
41.35 	0.041515 	4938 	0.040922
41.39 	0.041962 	4933 	0.041487
41.43 	0.035910 	4929 	0.035672
41.47 	0.044458 	4926 	0.043626
41.51 	0.038057 	4940 	0.037582
41.55 	0.040729 	4935 	0.039879
41.59 	0.036286 	4933 	0.036049
41.63 	0.041515 	4938 	0.041040
41.67 	0.042105 	4940 	0.041512
41.71 	0.041143 	4934 	0.040668
41.75 	0.043619 	4929 	0.043382
41.79 	0.045510 	4944 	0.044680
41.83 	0.038149 	4928 	0.038030
41.87 	0.038501 	4935 	0.038144
41.91 	0.042747 	4936 	0.042391
41.95 	0.037923 	4931 	0.037567
41.99 	0.040367 	4905 	0.039770
42.03 	0.040089 	4939 	0.039970
42.07 	0.038080 	4937 	0.037249
42.11 	0.036603 	4945 	0.036129
42.15 	0.037667 	4938 	0.037548
42.19 	0.040546 	4908 	0.040427
42.23 	0.037817 	4892 	0.036979
42.27 	0.035494 	4874 	0.035374
42.31 	0.040577 	4855 	0.040335
42.35 	0.037412 	4838 	0.036928
42.39 	0.041632 	4804 	0.041002
42.43 	0.041319 	4792 	0.040952
42.47 	0.039035 	4765 	0.038789
42.51 	0.036475 	4743 	0.035857
42.55 	0.040782 	4708 	0.040408
42.59 	0.037006 	4729 	0.036386
42.63 	0.035464 	4709 	0.035215
42.67 	0.041631 	4684 	0.040860
42.71 	0.039245 	4663 	0.038491
42.75 	0.035737 	4617 	0.035357
42.79 	0.038848 	4582 	0.038336
42.83 	0.040785 	4536 	0.040397
42.87 	0.033341 	4499 	0.032950
42.91 	0.041966 	4456 	0.041440
42.95 	0.036232 	4416 	0.035834
42.99 	0.035576 	4385 	0.035576
43.03 	0.044542 	4333 	0.044001
43.07 	0.035149 	4296 	0.034740
43.11 	0.038073 	4255 	0.037660
43.15 	0.036614 	4206 	0.035639
43.19 	0.038150 	4194 	0.037731
43.23 	0.036110 	4154 	0.035687
43.27 	0.040195 	4105 	0.039339
43.31 	0.045354 	4079 	0.044636
43.35 	0.042907 	4032 	0.042180
43.39 	0.039230 	4002 	0.038938
43.43 	0.040909 	3960 	0.039726
43.47 	0.040296 	3921 	0.039848
43.51 	0.037400 	3877 	0.037098
43.55 	0.035088 	2964 	0.034890
43.59 	0.048683 	1746 	0.048347
43.63 	0.031968 	1001 	0.031968
43.67 	0.035857 	502 	0.034690
43.71 	0.041841 	239 	0.041841
43.75 	0.062500 	16 	0.062500